"","Subject","TrialId","CRESP","RESP","ACC","RT","Block","Stimulus","Condition","CategoryName","NBlocks","LogNBlocks","LogRT"
"1",1,1,"j","j",1,1920,1,"B2","Label","A_Gatoo",3,1.09861228866811,7.56008046502183
"2",1,2,"f","f",1,1072,1,"A4","Label","A_Gatoo",3,1.09861228866811,6.97728134163075
"3",1,3,"f","j",0,891,1,"A1","Label","A_Gatoo",3,1.09861228866811,6.79234442747081
"4",1,4,"f","f",1,1541,1,"A3","Label","A_Gatoo",3,1.09861228866811,7.34018683532012
"5",1,5,"j","j",1,2172,1,"B5","Label","A_Gatoo",3,1.09861228866811,7.68340368105383
"6",1,6,"f","j",0,1820,1,"A5","Label","A_Gatoo",3,1.09861228866811,7.50659178007084
"7",1,7,"j","j",1,821,1,"B3","Label","A_Gatoo",3,1.09861228866811,6.71052310945243
"8",1,8,"j","j",1,907,1,"B1","Label","A_Gatoo",3,1.09861228866811,6.81014245011514
"9",1,9,"j","f",0,1046,1,"B6","Label","A_Gatoo",3,1.09861228866811,6.95272864462487
"10",1,10,"f","f",1,1929,1,"A6","Label","A_Gatoo",3,1.09861228866811,7.56475701290573
"11",1,11,"j","j",1,569,1,"B4","Label","A_Gatoo",3,1.09861228866811,6.34388043412633
"12",1,12,"f","j",0,1943,1,"A2","Label","A_Gatoo",3,1.09861228866811,7.57198844937744
"13",1,13,"f","f",1,1079,2,"A6","Label","A_Gatoo",3,1.09861228866811,6.98378996525813
"14",1,14,"j","j",1,954,2,"B2","Label","A_Gatoo",3,1.09861228866811,6.86066367144829
"15",1,15,"f","f",1,734,2,"A4","Label","A_Gatoo",3,1.09861228866811,6.59850902861452
"16",1,16,"f","f",1,1950,2,"A1","Label","A_Gatoo",3,1.09861228866811,7.57558465155779
"17",1,17,"j","j",1,2057,2,"B5","Label","A_Gatoo",3,1.09861228866811,7.62900388965296
"18",1,18,"f","j",0,803,2,"A5","Label","A_Gatoo",3,1.09861228866811,6.68835471394676
"19",1,19,"j","j",1,673,2,"B1","Label","A_Gatoo",3,1.09861228866811,6.51174532964473
"20",1,20,"f","f",1,2186,2,"A2","Label","A_Gatoo",3,1.09861228866811,7.68982866873648
"21",1,21,"j","f",0,1013,2,"B6","Label","A_Gatoo",3,1.09861228866811,6.92067150424868
"22",1,22,"j","j",1,939,2,"B4","Label","A_Gatoo",3,1.09861228866811,6.84481547920826
"23",1,23,"f","f",1,2942,2,"A3","Label","A_Gatoo",3,1.09861228866811,7.98684490116138
"24",1,24,"j","j",1,711,2,"B3","Label","A_Gatoo",3,1.09861228866811,6.56667242980324
"25",1,25,"j","j",1,433,3,"B3","Label","A_Gatoo",3,1.09861228866811,6.07073772800249
"26",1,26,"f","f",1,413,3,"A3","Label","A_Gatoo",3,1.09861228866811,6.02344759296103
"27",1,27,"j","j",1,600,3,"B1","Label","A_Gatoo",3,1.09861228866811,6.39692965521615
"28",1,28,"f","f",1,895,3,"A4","Label","A_Gatoo",3,1.09861228866811,6.79682371827486
"29",1,29,"j","j",1,533,3,"B4","Label","A_Gatoo",3,1.09861228866811,6.27852142416584
"30",1,30,"f","f",1,779,3,"A1","Label","A_Gatoo",3,1.09861228866811,6.65801104587075
"31",1,31,"f","f",1,572,3,"A6","Label","A_Gatoo",3,1.09861228866811,6.3491389913798
"32",1,32,"f","f",1,868,3,"A5","Label","A_Gatoo",3,1.09861228866811,6.76619171466035
"33",1,33,"j","j",1,740,3,"B2","Label","A_Gatoo",3,1.09861228866811,6.60665018619822
"34",1,34,"j","j",1,1174,3,"B6","Label","A_Gatoo",3,1.09861228866811,7.06817200038804
"35",1,35,"j","j",1,616,3,"B5","Label","A_Gatoo",3,1.09861228866811,6.42324696353352
"36",1,36,"f","f",1,785,3,"A2","Label","A_Gatoo",3,1.09861228866811,6.66568371778241
"37",1,253,"f","f",1,833,0,"A4","Label","A_Gatoo",3,1.09861228866811,6.72503364216684
"38",1,254,"j","j",1,2768,0,"B5","Label","A_Gatoo",3,1.09861228866811,7.92588031673756
"39",1,255,"f","f",1,1150,0,"A5","Label","A_Gatoo",3,1.09861228866811,7.0475172213573
"40",1,256,"j","j",1,632,0,"B4","Label","A_Gatoo",3,1.09861228866811,6.44888939414686
"41",1,257,"j","f",0,1403,0,"B2","Label","A_Gatoo",3,1.09861228866811,7.24636808010246
"42",1,258,"j","j",1,487,0,"B3","Label","A_Gatoo",3,1.09861228866811,6.18826412308259
"43",1,259,"f","f",1,1787,0,"A1","Label","A_Gatoo",3,1.09861228866811,7.48829351515943
"44",1,260,"j","j",1,1878,0,"B1","Label","A_Gatoo",3,1.09861228866811,7.53796265976821
"45",1,261,"f","f",1,1062,0,"A2","Label","A_Gatoo",3,1.09861228866811,6.96790920180188
"46",1,262,"f","f",1,1411,0,"A3","Label","A_Gatoo",3,1.09861228866811,7.25205395185281
"47",1,263,"j","j",1,593,0,"B6","Label","A_Gatoo",3,1.09861228866811,6.38519439899773
"48",1,264,"f","f",1,1760,0,"A6","Label","A_Gatoo",3,1.09861228866811,7.4730690880322
"49",11,1,"f","j",0,808,1,"A1","NoLabel","NoName",4,1.38629436111989,6.69456205852109
"50",11,2,"j","j",1,1037,1,"B6","NoLabel","NoName",4,1.38629436111989,6.94408720822953
"51",11,3,"f","j",0,957,1,"A5","NoLabel","NoName",4,1.38629436111989,6.86380339145295
"52",11,4,"f","j",0,706,1,"A4","NoLabel","NoName",4,1.38629436111989,6.55961523749324
"53",11,5,"j","f",0,1047,1,"B1","NoLabel","NoName",4,1.38629436111989,6.95368421087054
"54",11,6,"f","f",1,932,1,"A3","NoLabel","NoName",4,1.38629436111989,6.83733281468559
"55",11,7,"f","j",0,3083,1,"A6","NoLabel","NoName",4,1.38629436111989,8.03365842788615
"56",11,8,"j","f",0,1971,1,"B5","NoLabel","NoName",4,1.38629436111989,7.58629630715272
"57",11,9,"j","f",0,1098,1,"B4","NoLabel","NoName",4,1.38629436111989,7.00124562206948
"58",11,10,"j","f",0,1211,1,"B2","NoLabel","NoName",4,1.38629436111989,7.09920174355309
"59",11,11,"j","f",0,1259,1,"B3","NoLabel","NoName",4,1.38629436111989,7.13807303404435
"60",11,12,"f","f",1,1010,1,"A2","NoLabel","NoName",4,1.38629436111989,6.9177056098353
"61",11,13,"f","j",0,1138,2,"A5","NoLabel","NoName",4,1.38629436111989,7.03702761468628
"62",11,14,"j","j",1,633,2,"B1","NoLabel","NoName",4,1.38629436111989,6.45047042214418
"63",11,15,"f","f",1,749,2,"A3","NoLabel","NoName",4,1.38629436111989,6.61873898351722
"64",11,16,"j","f",0,770,2,"B6","NoLabel","NoName",4,1.38629436111989,6.64639051484773
"65",11,17,"j","j",1,720,2,"B4","NoLabel","NoName",4,1.38629436111989,6.5792512120101
"66",11,18,"f","f",1,1160,2,"A4","NoLabel","NoName",4,1.38629436111989,7.05617528410041
"67",11,19,"j","j",1,835,2,"B3","NoLabel","NoName",4,1.38629436111989,6.72743172485086
"68",11,20,"j","f",0,911,2,"B5","NoLabel","NoName",4,1.38629436111989,6.81454289725996
"69",11,21,"f","f",1,732,2,"A1","NoLabel","NoName",4,1.38629436111989,6.59578051396131
"70",11,22,"f","j",0,809,2,"A6","NoLabel","NoName",4,1.38629436111989,6.69579891705849
"71",11,23,"j","j",1,708,2,"B2","NoLabel","NoName",4,1.38629436111989,6.56244409369372
"72",11,24,"f","f",1,626,2,"A2","NoLabel","NoName",4,1.38629436111989,6.4393503711001
"73",11,25,"j","j",1,1588,3,"B6","NoLabel","NoName",4,1.38629436111989,7.37023064180708
"74",11,26,"j","j",1,753,3,"B2","NoLabel","NoName",4,1.38629436111989,6.62406522779989
"75",11,27,"f","f",1,1147,3,"A3","NoLabel","NoName",4,1.38629436111989,7.04490511712937
"76",11,28,"j","j",1,1262,3,"B5","NoLabel","NoName",4,1.38629436111989,7.14045304310116
"77",11,29,"j","f",0,628,3,"B1","NoLabel","NoName",4,1.38629436111989,6.4425401664682
"78",11,30,"f","f",1,591,3,"A2","NoLabel","NoName",4,1.38629436111989,6.3818160174061
"79",11,31,"j","j",1,641,3,"B4","NoLabel","NoName",4,1.38629436111989,6.46302945692067
"80",11,32,"f","f",1,681,3,"A5","NoLabel","NoName",4,1.38629436111989,6.52356230614951
"81",11,33,"j","j",1,692,3,"B3","NoLabel","NoName",4,1.38629436111989,6.53958595561767
"82",11,34,"f","f",1,610,3,"A1","NoLabel","NoName",4,1.38629436111989,6.41345895716736
"83",11,35,"f","f",1,1011,3,"A4","NoLabel","NoName",4,1.38629436111989,6.91869521902047
"84",11,36,"f","f",1,1102,3,"A6","NoLabel","NoName",4,1.38629436111989,7.00488198971286
"85",11,37,"f","f",1,629,4,"A2","NoLabel","NoName",4,1.38629436111989,6.44413125670044
"86",11,38,"j","j",1,630,4,"B5","NoLabel","NoName",4,1.38629436111989,6.44571981938558
"87",11,39,"f","f",1,784,4,"A5","NoLabel","NoName",4,1.38629436111989,6.66440902035041
"88",11,40,"j","j",1,602,4,"B3","NoLabel","NoName",4,1.38629436111989,6.40025744530882
"89",11,41,"f","f",1,674,4,"A6","NoLabel","NoName",4,1.38629436111989,6.51323011091231
"90",11,42,"f","f",1,548,4,"A1","NoLabel","NoName",4,1.38629436111989,6.30627528694802
"91",11,43,"f","f",1,610,4,"A4","NoLabel","NoName",4,1.38629436111989,6.41345895716736
"92",11,44,"j","j",1,551,4,"B4","NoLabel","NoName",4,1.38629436111989,6.31173480915291
"93",11,45,"f","f",1,651,4,"A3","NoLabel","NoName",4,1.38629436111989,6.47850964220857
"94",11,46,"j","j",1,674,4,"B1","NoLabel","NoName",4,1.38629436111989,6.51323011091231
"95",11,47,"j","j",1,779,4,"B2","NoLabel","NoName",4,1.38629436111989,6.65801104587075
"96",11,48,"j","j",1,481,4,"B6","NoLabel","NoName",4,1.38629436111989,6.17586727010576
"97",11,253,"j","j",1,680,0,"B3","NoLabel","NoName",4,1.38629436111989,6.52209279817015
"98",11,254,"f","f",1,702,0,"A4","NoLabel","NoName",4,1.38629436111989,6.55393340402581
"99",11,255,"j","j",1,592,0,"B4","NoLabel","NoName",4,1.38629436111989,6.38350663488401
"100",11,256,"f","f",1,648,0,"A5","NoLabel","NoName",4,1.38629436111989,6.47389069635227
"101",11,257,"j","j",1,720,0,"B6","NoLabel","NoName",4,1.38629436111989,6.5792512120101
"102",11,258,"j","j",1,632,0,"B5","NoLabel","NoName",4,1.38629436111989,6.44888939414686
"103",11,259,"j","j",1,797,0,"B1","NoLabel","NoName",4,1.38629436111989,6.68085467879022
"104",11,260,"f","f",1,725,0,"A3","NoLabel","NoName",4,1.38629436111989,6.58617165485467
"105",11,261,"f","f",1,668,0,"A6","NoLabel","NoName",4,1.38629436111989,6.50428817353665
"106",11,262,"f","f",1,2168,0,"A1","NoLabel","NoName",4,1.38629436111989,7.68156036255954
"107",11,263,"j","j",1,649,0,"B2","NoLabel","NoName",4,1.38629436111989,6.47543271670409
"108",11,264,"f","f",1,721,0,"A2","NoLabel","NoName",4,1.38629436111989,6.58063913728495
"109",14,1,"j","f",0,1148,1,"B6","NoLabel","NoName",4,1.38629436111989,7.04577657687951
"110",14,2,"j","j",1,1587,1,"B1","NoLabel","NoName",4,1.38629436111989,7.36960072052641
"111",14,3,"f","f",1,2501,1,"A6","NoLabel","NoName",4,1.38629436111989,7.82444593087762
"112",14,4,"f","f",1,1930,1,"A4","NoLabel","NoName",4,1.38629436111989,7.56527528189893
"113",14,5,"j","j",1,432,1,"B5","NoLabel","NoName",4,1.38629436111989,6.06842558824411
"114",14,6,"j","f",0,818,1,"B3","NoLabel","NoName",4,1.38629436111989,6.70686233660275
"115",14,7,"j","j",1,1597,1,"B4","NoLabel","NoName",4,1.38629436111989,7.37588214821501
"116",14,8,"f","f",1,1499,1,"A3","NoLabel","NoName",4,1.38629436111989,7.3125534981026
"117",14,9,"f","j",0,3434,1,"A1","NoLabel","NoName",4,1.38629436111989,8.14148104145742
"118",14,10,"j","j",1,2927,1,"B2","NoLabel","NoName",4,1.38629436111989,7.98173328669189
"119",14,11,"f","f",1,3004,1,"A2","NoLabel","NoName",4,1.38629436111989,8.00770001288403
"120",14,12,"f","j",0,1178,1,"A5","NoLabel","NoName",4,1.38629436111989,7.07157336421153
"121",14,13,"f","j",0,1010,2,"A1","NoLabel","NoName",4,1.38629436111989,6.9177056098353
"122",14,14,"f","f",1,1211,2,"A5","NoLabel","NoName",4,1.38629436111989,7.09920174355309
"123",14,15,"j","j",1,1747,2,"B3","NoLabel","NoName",4,1.38629436111989,7.46565531013406
"124",14,16,"f","f",1,1712,2,"A2","NoLabel","NoName",4,1.38629436111989,7.44541755670169
"125",14,17,"j","j",1,1173,2,"B5","NoLabel","NoName",4,1.38629436111989,7.06731984865348
"126",14,18,"j","j",1,1054,2,"B2","NoLabel","NoName",4,1.38629436111989,6.96034772910131
"127",14,19,"f","f",1,685,2,"A3","NoLabel","NoName",4,1.38629436111989,6.52941883826223
"128",14,20,"f","f",1,597,2,"A6","NoLabel","NoName",4,1.38629436111989,6.3919171133926
"129",14,21,"j","j",1,783,2,"B4","NoLabel","NoName",4,1.38629436111989,6.6631326959908
"130",14,22,"j","j",1,731,2,"B1","NoLabel","NoName",4,1.38629436111989,6.59441345974978
"131",14,23,"j","j",1,829,2,"B6","NoLabel","NoName",4,1.38629436111989,6.7202201551353
"132",14,24,"f","f",1,450,2,"A4","NoLabel","NoName",4,1.38629436111989,6.10924758276437
"133",14,25,"f","f",1,535,3,"A6","NoLabel","NoName",4,1.38629436111989,6.28226674689601
"134",14,26,"f","f",1,461,3,"A5","NoLabel","NoName",4,1.38629436111989,6.13339804299665
"135",14,27,"j","j",1,506,3,"B3","NoLabel","NoName",4,1.38629436111989,6.22653666928747
"136",14,28,"j","j",1,712,3,"B4","NoLabel","NoName",4,1.38629436111989,6.56807791141198
"137",14,29,"f","f",1,536,3,"A2","NoLabel","NoName",4,1.38629436111989,6.2841341610708
"138",14,30,"j","j",1,729,3,"B1","NoLabel","NoName",4,1.38629436111989,6.59167373200866
"139",14,31,"f","f",1,1762,3,"A4","NoLabel","NoName",4,1.38629436111989,7.47420480649612
"140",14,32,"j","j",1,1465,3,"B6","NoLabel","NoName",4,1.38629436111989,7.28961052145117
"141",14,33,"f","j",0,959,3,"A1","NoLabel","NoName",4,1.38629436111989,6.86589107488344
"142",14,34,"f","f",1,663,3,"A3","NoLabel","NoName",4,1.38629436111989,6.49677499018586
"143",14,35,"j","j",1,575,3,"B5","NoLabel","NoName",4,1.38629436111989,6.35437004079735
"144",14,36,"j","j",1,720,3,"B2","NoLabel","NoName",4,1.38629436111989,6.5792512120101
"145",14,37,"j","j",1,888,4,"B2","NoLabel","NoName",4,1.38629436111989,6.78897174299217
"146",14,38,"f","f",1,742,4,"A2","NoLabel","NoName",4,1.38629436111989,6.60934924316738
"147",14,39,"j","j",1,686,4,"B4","NoLabel","NoName",4,1.38629436111989,6.53087762772588
"148",14,40,"j","j",1,620,4,"B5","NoLabel","NoName",4,1.38629436111989,6.42971947803914
"149",14,41,"j","j",1,483,4,"B6","NoLabel","NoName",4,1.38629436111989,6.18001665365257
"150",14,42,"f","f",1,651,4,"A6","NoLabel","NoName",4,1.38629436111989,6.47850964220857
"151",14,43,"f","f",1,1103,4,"A4","NoLabel","NoName",4,1.38629436111989,7.0057890192535
"152",14,44,"j","j",1,707,4,"B1","NoLabel","NoName",4,1.38629436111989,6.56103066589657
"153",14,45,"j","j",1,778,4,"B3","NoLabel","NoName",4,1.38629436111989,6.65672652417839
"154",14,46,"f","f",1,1745,4,"A1","NoLabel","NoName",4,1.38629436111989,7.46450983463653
"155",14,47,"f","f",1,715,4,"A5","NoLabel","NoName",4,1.38629436111989,6.57228254269401
"156",14,48,"f","f",1,616,4,"A3","NoLabel","NoName",4,1.38629436111989,6.42324696353352
"157",14,253,"f","f",1,942,0,"A3","NoLabel","NoName",4,1.38629436111989,6.84800527457636
"158",14,254,"j","j",1,966,0,"B1","NoLabel","NoName",4,1.38629436111989,6.87316383421252
"159",14,255,"j","j",1,473,0,"B3","NoLabel","NoName",4,1.38629436111989,6.15909538849193
"160",14,256,"f","f",1,586,0,"A5","NoLabel","NoName",4,1.38629436111989,6.37331978957701
"161",14,257,"f","f",1,459,0,"A6","NoLabel","NoName",4,1.38629436111989,6.12905021006055
"162",14,258,"f","f",1,2007,0,"A1","NoLabel","NoName",4,1.38629436111989,7.60439634879634
"163",14,259,"j","j",1,720,0,"B5","NoLabel","NoName",4,1.38629436111989,6.5792512120101
"164",14,260,"j","j",1,511,0,"B4","NoLabel","NoName",4,1.38629436111989,6.2363695902037
"165",14,261,"f","f",1,591,0,"A4","NoLabel","NoName",4,1.38629436111989,6.3818160174061
"166",14,262,"f","f",1,1606,0,"A2","NoLabel","NoName",4,1.38629436111989,7.38150189450671
"167",14,263,"j","j",1,632,0,"B2","NoLabel","NoName",4,1.38629436111989,6.44888939414686
"168",14,264,"j","j",1,446,0,"B6","NoLabel","NoName",4,1.38629436111989,6.10031895202006
"169",13,1,"j","j",1,4196,1,"B5","Label","A_Gatoo",5,1.6094379124341,8.34188696951619
"170",13,2,"j","f",0,2474,1,"B1","Label","A_Gatoo",5,1.6094379124341,7.81359155295243
"171",13,3,"f","f",1,3614,1,"A6","Label","A_Gatoo",5,1.6094379124341,8.19257047115217
"172",13,4,"f","f",1,3091,1,"A4","Label","A_Gatoo",5,1.6094379124341,8.03624994213212
"173",13,5,"f","f",1,3163,1,"A5","Label","A_Gatoo",5,1.6094379124341,8.05927622330565
"174",13,6,"f","j",0,1330,1,"A2","Label","A_Gatoo",5,1.6094379124341,7.1929342212158
"175",13,7,"f","j",0,5010,1,"A1","Label","A_Gatoo",5,1.6094379124341,8.51919119407891
"176",13,8,"j","j",1,7517,1,"B6","Label","A_Gatoo",5,1.6094379124341,8.92492240117747
"177",13,9,"j","f",0,5121,1,"B2","Label","A_Gatoo",5,1.6094379124341,8.54110501146255
"178",13,10,"f","f",1,5256,1,"A3","Label","A_Gatoo",5,1.6094379124341,8.56712556016445
"179",13,11,"j","j",1,8697,1,"B4","Label","A_Gatoo",5,1.6094379124341,9.07073341758977
"180",13,12,"j","j",1,2405,1,"B3","Label","A_Gatoo",5,1.6094379124341,7.78530518253986
"181",13,13,"j","f",0,1930,2,"B6","Label","A_Gatoo",5,1.6094379124341,7.56527528189893
"182",13,14,"f","j",0,2073,2,"A2","Label","A_Gatoo",5,1.6094379124341,7.63675211243578
"183",13,15,"f","f",1,3087,2,"A1","Label","A_Gatoo",5,1.6094379124341,8.03495502450216
"184",13,16,"j","j",1,3224,2,"B4","Label","A_Gatoo",5,1.6094379124341,8.07837810362652
"185",13,17,"f","f",1,1911,2,"A3","Label","A_Gatoo",5,1.6094379124341,7.55538194424027
"186",13,18,"f","j",0,825,2,"A4","Label","A_Gatoo",5,1.6094379124341,6.71538338633468
"187",13,19,"j","j",1,8396,2,"B3","Label","A_Gatoo",5,1.6094379124341,9.03551068094052
"188",13,20,"f","f",1,5681,2,"A5","Label","A_Gatoo",5,1.6094379124341,8.64488255255713
"189",13,21,"f","f",1,1215,2,"A6","Label","A_Gatoo",5,1.6094379124341,7.10249935577465
"190",13,22,"j","j",1,886,2,"B2","Label","A_Gatoo",5,1.6094379124341,6.78671695060508
"191",13,23,"j","f",0,710,2,"B5","Label","A_Gatoo",5,1.6094379124341,6.56526497003536
"192",13,24,"j","j",1,4075,2,"B1","Label","A_Gatoo",5,1.6094379124341,8.31262602567496
"193",13,25,"j","j",1,2069,3,"B2","Label","A_Gatoo",5,1.6094379124341,7.63482067774554
"194",13,26,"j","f",0,1816,3,"B6","Label","A_Gatoo",5,1.6094379124341,7.50439155916124
"195",13,27,"j","j",1,1785,3,"B1","Label","A_Gatoo",5,1.6094379124341,7.48717369421374
"196",13,28,"f","j",0,3055,3,"A1","Label","A_Gatoo",5,1.6094379124341,8.0245348716057
"197",13,29,"j","j",1,2979,3,"B3","Label","A_Gatoo",5,1.6094379124341,7.99934295271328
"198",13,30,"f","f",1,2657,3,"A4","Label","A_Gatoo",5,1.6094379124341,7.88495294575981
"199",13,31,"f","f",1,2219,3,"A3","Label","A_Gatoo",5,1.6094379124341,7.70481192293259
"200",13,32,"j","f",0,1936,3,"B5","Label","A_Gatoo",5,1.6094379124341,7.56837926783652
"201",13,33,"f","j",0,4636,3,"A5","Label","A_Gatoo",5,1.6094379124341,8.44160720445964
"202",13,34,"f","f",1,3747,3,"A6","Label","A_Gatoo",5,1.6094379124341,8.22871079879369
"203",13,35,"j","j",1,741,3,"B4","Label","A_Gatoo",5,1.6094379124341,6.60800062529609
"204",13,36,"f","f",1,1286,3,"A2","Label","A_Gatoo",5,1.6094379124341,7.15929190479756
"205",13,37,"f","f",1,1718,4,"A1","Label","A_Gatoo",5,1.6094379124341,7.4489161025442
"206",13,38,"j","f",0,2288,4,"B5","Label","A_Gatoo",5,1.6094379124341,7.73543335249969
"207",13,39,"j","f",0,2714,4,"B6","Label","A_Gatoo",5,1.6094379124341,7.90617884039481
"208",13,40,"j","j",1,1058,4,"B2","Label","A_Gatoo",5,1.6094379124341,6.96413561241824
"209",13,41,"f","f",1,2349,4,"A5","Label","A_Gatoo",5,1.6094379124341,7.76174498465891
"210",13,42,"f","f",1,888,4,"A3","Label","A_Gatoo",5,1.6094379124341,6.78897174299217
"211",13,43,"j","j",1,1019,4,"B1","Label","A_Gatoo",5,1.6094379124341,6.92657703322272
"212",13,44,"j","j",1,1116,4,"B3","Label","A_Gatoo",5,1.6094379124341,7.01750614294126
"213",13,45,"j","j",1,1595,4,"B4","Label","A_Gatoo",5,1.6094379124341,7.37462901521894
"214",13,46,"f","f",1,3465,4,"A6","Label","A_Gatoo",5,1.6094379124341,8.150467911624
"215",13,47,"f","f",1,986,4,"A2","Label","A_Gatoo",5,1.6094379124341,6.89365635460264
"216",13,48,"f","f",1,2460,4,"A4","Label","A_Gatoo",5,1.6094379124341,7.80791662892641
"217",13,49,"j","j",1,549,5,"B4","Label","A_Gatoo",5,1.6094379124341,6.30809844150953
"218",13,50,"j","j",1,757,5,"B3","Label","A_Gatoo",5,1.6094379124341,6.62936325343745
"219",13,51,"j","j",1,2536,5,"B1","Label","A_Gatoo",5,1.6094379124341,7.83834331555712
"220",13,52,"j","j",1,2155,5,"B6","Label","A_Gatoo",5,1.6094379124341,7.67554600253785
"221",13,53,"f","f",1,1609,5,"A5","Label","A_Gatoo",5,1.6094379124341,7.38336814699238
"222",13,54,"f","f",1,758,5,"A6","Label","A_Gatoo",5,1.6094379124341,6.63068338564237
"223",13,55,"f","f",1,869,5,"A2","Label","A_Gatoo",5,1.6094379124341,6.76734312526539
"224",13,56,"j","j",1,1286,5,"B5","Label","A_Gatoo",5,1.6094379124341,7.15929190479756
"225",13,57,"j","j",1,1077,5,"B2","Label","A_Gatoo",5,1.6094379124341,6.98193467715639
"226",13,58,"f","f",1,1320,5,"A4","Label","A_Gatoo",5,1.6094379124341,7.18538701558042
"227",13,59,"f","f",1,1028,5,"A1","Label","A_Gatoo",5,1.6094379124341,6.93537044601511
"228",13,60,"f","f",1,685,5,"A3","Label","A_Gatoo",5,1.6094379124341,6.52941883826223
"229",13,253,"f","f",1,4721,0,"A5","Label","A_Gatoo",5,1.6094379124341,8.45977592054629
"230",13,254,"f","f",1,1325,0,"A3","Label","A_Gatoo",5,1.6094379124341,7.18916773842032
"231",13,255,"j","j",1,841,0,"B4","Label","A_Gatoo",5,1.6094379124341,6.73459165997295
"232",13,256,"j","j",1,1422,0,"B2","Label","A_Gatoo",5,1.6094379124341,7.25981961036319
"233",13,257,"j","j",1,707,0,"B5","Label","A_Gatoo",5,1.6094379124341,6.56103066589657
"234",13,258,"j","j",1,939,0,"B3","Label","A_Gatoo",5,1.6094379124341,6.84481547920826
"235",13,259,"f","f",1,790,0,"A4","Label","A_Gatoo",5,1.6094379124341,6.67203294546107
"236",13,260,"j","j",1,1779,0,"B1","Label","A_Gatoo",5,1.6094379124341,7.48380668766583
"237",13,261,"j","j",1,800,0,"B6","Label","A_Gatoo",5,1.6094379124341,6.68461172766793
"238",13,262,"f","f",1,1454,0,"A6","Label","A_Gatoo",5,1.6094379124341,7.28207365809346
"239",13,263,"f","f",1,705,0,"A1","Label","A_Gatoo",5,1.6094379124341,6.55819780281227
"240",13,264,"f","f",1,1553,0,"A2","Label","A_Gatoo",5,1.6094379124341,7.34794382314869
"241",12,1,"f","f",1,1487,1,"A5","Label","A_Saldie",9,2.19722457733622,7.30451594646016
"242",12,2,"j","f",0,1022,1,"B5","Label","A_Saldie",9,2.19722457733622,6.92951677076365
"243",12,3,"f","j",0,986,1,"A1","Label","A_Saldie",9,2.19722457733622,6.89365635460264
"244",12,4,"j","j",1,1150,1,"B3","Label","A_Saldie",9,2.19722457733622,7.0475172213573
"245",12,5,"j","f",0,1036,1,"B1","Label","A_Saldie",9,2.19722457733622,6.94312242281943
"246",12,6,"j","j",1,1149,1,"B2","Label","A_Saldie",9,2.19722457733622,7.04664727784876
"247",12,7,"j","j",1,652,1,"B6","Label","A_Saldie",9,2.19722457733622,6.48004456192665
"248",12,8,"f","j",0,792,1,"A2","Label","A_Saldie",9,2.19722457733622,6.67456139181443
"249",12,9,"f","f",1,690,1,"A4","Label","A_Saldie",9,2.19722457733622,6.5366915975913
"250",12,10,"f","f",1,568,1,"A3","Label","A_Saldie",9,2.19722457733622,6.34212141872115
"251",12,11,"j","j",1,809,1,"B4","Label","A_Saldie",9,2.19722457733622,6.69579891705849
"252",12,12,"f","f",1,673,1,"A6","Label","A_Saldie",9,2.19722457733622,6.51174532964473
"253",12,13,"j","f",0,918,2,"B2","Label","A_Saldie",9,2.19722457733622,6.82219739062049
"254",12,14,"j","j",1,818,2,"B5","Label","A_Saldie",9,2.19722457733622,6.70686233660275
"255",12,15,"f","j",0,1072,2,"A2","Label","A_Saldie",9,2.19722457733622,6.97728134163075
"256",12,16,"f","f",1,738,2,"A4","Label","A_Saldie",9,2.19722457733622,6.60394382460047
"257",12,17,"f","f",1,626,2,"A5","Label","A_Saldie",9,2.19722457733622,6.4393503711001
"258",12,18,"f","j",0,1360,2,"A1","Label","A_Saldie",9,2.19722457733622,7.2152399787301
"259",12,19,"j","j",1,860,2,"B4","Label","A_Saldie",9,2.19722457733622,6.75693238924755
"260",12,20,"j","f",0,751,2,"B1","Label","A_Saldie",9,2.19722457733622,6.62140565176413
"261",12,21,"j","j",1,622,2,"B6","Label","A_Saldie",9,2.19722457733622,6.43294009273918
"262",12,22,"j","j",1,529,2,"B3","Label","A_Saldie",9,2.19722457733622,6.2709884318583
"263",12,23,"f","f",1,688,2,"A3","Label","A_Saldie",9,2.19722457733622,6.53378883793334
"264",12,24,"f","f",1,528,2,"A6","Label","A_Saldie",9,2.19722457733622,6.26909628370626
"265",12,25,"f","f",1,485,3,"A6","Label","A_Saldie",9,2.19722457733622,6.18414889093748
"266",12,26,"f","j",0,1116,3,"A2","Label","A_Saldie",9,2.19722457733622,7.01750614294126
"267",12,27,"j","f",0,938,3,"B1","Label","A_Saldie",9,2.19722457733622,6.84374994900622
"268",12,28,"j","j",1,2149,3,"B5","Label","A_Saldie",9,2.19722457733622,7.67275789664251
"269",12,29,"f","j",0,930,3,"A1","Label","A_Saldie",9,2.19722457733622,6.8351845861473
"270",12,30,"f","f",1,1122,3,"A5","Label","A_Saldie",9,2.19722457733622,7.02286808608264
"271",12,31,"j","j",1,637,3,"B3","Label","A_Saldie",9,2.19722457733622,6.45676965557216
"272",12,32,"j","j",1,1377,3,"B2","Label","A_Saldie",9,2.19722457733622,7.22766249872865
"273",12,33,"j","j",1,1381,3,"B6","Label","A_Saldie",9,2.19722457733622,7.23056315340929
"274",12,34,"j","f",0,772,3,"B4","Label","A_Saldie",9,2.19722457733622,6.64898455002478
"275",12,35,"f","f",1,785,3,"A3","Label","A_Saldie",9,2.19722457733622,6.66568371778241
"276",12,36,"f","f",1,826,3,"A4","Label","A_Saldie",9,2.19722457733622,6.71659477352098
"277",12,37,"f","f",1,542,4,"A6","Label","A_Saldie",9,2.19722457733622,6.29526600143965
"278",12,38,"j","j",1,1195,4,"B2","Label","A_Saldie",9,2.19722457733622,7.08590146436561
"279",12,39,"j","j",1,994,4,"B6","Label","A_Saldie",9,2.19722457733622,6.90173720665657
"280",12,40,"j","j",1,720,4,"B4","Label","A_Saldie",9,2.19722457733622,6.5792512120101
"281",12,41,"j","j",1,1355,4,"B1","Label","A_Saldie",9,2.19722457733622,7.2115567333138
"282",12,42,"j","j",1,779,4,"B3","Label","A_Saldie",9,2.19722457733622,6.65801104587075
"283",12,43,"f","j",0,2980,4,"A1","Label","A_Saldie",9,2.19722457733622,7.99967857949945
"284",12,44,"f","f",1,1195,4,"A5","Label","A_Saldie",9,2.19722457733622,7.08590146436561
"285",12,45,"j","j",1,819,4,"B5","Label","A_Saldie",9,2.19722457733622,6.70808408385307
"286",12,46,"f","f",1,685,4,"A4","Label","A_Saldie",9,2.19722457733622,6.52941883826223
"287",12,47,"f","f",1,1032,4,"A2","Label","A_Saldie",9,2.19722457733622,6.93925394604151
"288",12,48,"f","f",1,840,4,"A3","Label","A_Saldie",9,2.19722457733622,6.73340189183736
"289",12,49,"j","j",1,803,5,"B1","Label","A_Saldie",9,2.19722457733622,6.68835471394676
"290",12,50,"f","j",0,686,5,"A1","Label","A_Saldie",9,2.19722457733622,6.53087762772588
"291",12,51,"j","j",1,1333,5,"B6","Label","A_Saldie",9,2.19722457733622,7.19518732017871
"292",12,52,"f","f",1,905,5,"A4","Label","A_Saldie",9,2.19722457733622,6.80793494369993
"293",12,53,"f","f",1,641,5,"A6","Label","A_Saldie",9,2.19722457733622,6.46302945692067
"294",12,54,"j","j",1,1069,5,"B4","Label","A_Saldie",9,2.19722457733622,6.97447891102505
"295",12,55,"j","f",0,1479,5,"B2","Label","A_Saldie",9,2.19722457733622,7.2991214627108
"296",12,56,"f","f",1,754,5,"A3","Label","A_Saldie",9,2.19722457733622,6.62539236800796
"297",12,57,"j","j",1,703,5,"B3","Label","A_Saldie",9,2.19722457733622,6.55535689181067
"298",12,58,"f","f",1,1009,5,"A2","Label","A_Saldie",9,2.19722457733622,6.91671502035361
"299",12,59,"f","f",1,681,5,"A5","Label","A_Saldie",9,2.19722457733622,6.52356230614951
"300",12,60,"j","j",1,713,5,"B5","Label","A_Saldie",9,2.19722457733622,6.5694814204143
"301",12,61,"f","f",1,991,6,"A2","Label","A_Saldie",9,2.19722457733622,6.89871453432999
"302",12,62,"j","j",1,788,6,"B5","Label","A_Saldie",9,2.19722457733622,6.66949808985788
"303",12,63,"j","j",1,974,6,"B1","Label","A_Saldie",9,2.19722457733622,6.88141130364254
"304",12,64,"j","f",0,865,6,"B6","Label","A_Saldie",9,2.19722457733622,6.76272950693188
"305",12,65,"j","f",0,1111,6,"B2","Label","A_Saldie",9,2.19722457733622,7.01301578963963
"306",12,66,"f","f",1,934,6,"A6","Label","A_Saldie",9,2.19722457733622,6.83947643822884
"307",12,67,"f","f",1,799,6,"A3","Label","A_Saldie",9,2.19722457733622,6.68336094576627
"308",12,68,"j","j",1,720,6,"B4","Label","A_Saldie",9,2.19722457733622,6.5792512120101
"309",12,69,"f","f",1,856,6,"A4","Label","A_Saldie",9,2.19722457733622,6.75227037614174
"310",12,70,"f","j",0,1495,6,"A1","Label","A_Saldie",9,2.19722457733622,7.30988148582479
"311",12,71,"f","f",1,694,6,"A5","Label","A_Saldie",9,2.19722457733622,6.5424719605068
"312",12,72,"j","j",1,787,6,"B3","Label","A_Saldie",9,2.19722457733622,6.6682282484174
"313",12,73,"j","j",1,867,7,"B1","Label","A_Saldie",9,2.19722457733622,6.76503897678054
"314",12,74,"j","f",0,1604,7,"B2","Label","A_Saldie",9,2.19722457733622,7.38025578842646
"315",12,75,"f","f",1,790,7,"A6","Label","A_Saldie",9,2.19722457733622,6.67203294546107
"316",12,76,"j","j",1,805,7,"B6","Label","A_Saldie",9,2.19722457733622,6.69084227741856
"317",12,77,"f","f",1,688,7,"A3","Label","A_Saldie",9,2.19722457733622,6.53378883793334
"318",12,78,"j","j",1,644,7,"B3","Label","A_Saldie",9,2.19722457733622,6.46769872610435
"319",12,79,"f","f",1,787,7,"A4","Label","A_Saldie",9,2.19722457733622,6.6682282484174
"320",12,80,"f","f",1,627,7,"A5","Label","A_Saldie",9,2.19722457733622,6.44094654063292
"321",12,81,"j","j",1,757,7,"B5","Label","A_Saldie",9,2.19722457733622,6.62936325343745
"322",12,82,"f","j",0,942,7,"A1","Label","A_Saldie",9,2.19722457733622,6.84800527457636
"323",12,83,"f","j",0,1657,7,"A2","Label","A_Saldie",9,2.19722457733622,7.41276401742656
"324",12,84,"j","j",1,826,7,"B4","Label","A_Saldie",9,2.19722457733622,6.71659477352098
"325",12,85,"f","f",1,1635,8,"A5","Label","A_Saldie",9,2.19722457733622,7.39939808333135
"326",12,86,"j","f",0,2057,8,"B2","Label","A_Saldie",9,2.19722457733622,7.62900388965296
"327",12,87,"f","f",1,606,8,"A6","Label","A_Saldie",9,2.19722457733622,6.40687998606931
"328",12,88,"f","j",0,1068,8,"A1","Label","A_Saldie",9,2.19722457733622,6.97354301952014
"329",12,89,"j","j",1,613,8,"B4","Label","A_Saldie",9,2.19722457733622,6.41836493593621
"330",12,90,"f","f",1,1058,8,"A4","Label","A_Saldie",9,2.19722457733622,6.96413561241824
"331",12,91,"j","j",1,1218,8,"B6","Label","A_Saldie",9,2.19722457733622,7.10496544826984
"332",12,92,"j","j",1,733,8,"B3","Label","A_Saldie",9,2.19722457733622,6.59714570188665
"333",12,93,"j","j",1,1391,8,"B5","Label","A_Saldie",9,2.19722457733622,7.23777819192344
"334",12,94,"f","f",1,1951,8,"A2","Label","A_Saldie",9,2.19722457733622,7.57609734062311
"335",12,95,"f","f",1,924,8,"A3","Label","A_Saldie",9,2.19722457733622,6.82871207164168
"336",12,96,"j","j",1,943,8,"B1","Label","A_Saldie",9,2.19722457733622,6.84906628263346
"337",12,97,"f","f",1,1367,9,"A1","Label","A_Saldie",9,2.19722457733622,7.22037383672395
"338",12,98,"j","j",1,2137,9,"B5","Label","A_Saldie",9,2.19722457733622,7.66715825531915
"339",12,99,"j","j",1,991,9,"B1","Label","A_Saldie",9,2.19722457733622,6.89871453432999
"340",12,100,"j","j",1,636,9,"B4","Label","A_Saldie",9,2.19722457733622,6.45519856334012
"341",12,101,"j","j",1,604,9,"B6","Label","A_Saldie",9,2.19722457733622,6.40357419793482
"342",12,102,"f","f",1,1236,9,"A2","Label","A_Saldie",9,2.19722457733622,7.11963563801764
"343",12,103,"f","f",1,966,9,"A4","Label","A_Saldie",9,2.19722457733622,6.87316383421252
"344",12,104,"j","j",1,974,9,"B2","Label","A_Saldie",9,2.19722457733622,6.88141130364254
"345",12,105,"f","f",1,1057,9,"A5","Label","A_Saldie",9,2.19722457733622,6.96318998587024
"346",12,106,"j","j",1,543,9,"B3","Label","A_Saldie",9,2.19722457733622,6.29710931993394
"347",12,107,"f","f",1,597,9,"A3","Label","A_Saldie",9,2.19722457733622,6.3919171133926
"348",12,108,"f","f",1,870,9,"A6","Label","A_Saldie",9,2.19722457733622,6.76849321164863
"349",12,253,"f","f",1,1068,0,"A2","Label","A_Saldie",9,2.19722457733622,6.97354301952014
"350",12,254,"j","j",1,807,0,"B5","Label","A_Saldie",9,2.19722457733622,6.69332366826995
"351",12,255,"f","f",1,1267,0,"A6","Label","A_Saldie",9,2.19722457733622,7.14440718032114
"352",12,256,"f","f",1,888,0,"A5","Label","A_Saldie",9,2.19722457733622,6.78897174299217
"353",12,257,"f","f",1,959,0,"A4","Label","A_Saldie",9,2.19722457733622,6.86589107488344
"354",12,258,"j","j",1,1253,0,"B1","Label","A_Saldie",9,2.19722457733622,7.13329595489607
"355",12,259,"j","j",1,813,0,"B6","Label","A_Saldie",9,2.19722457733622,6.70073110954781
"356",12,260,"f","f",1,989,0,"A1","Label","A_Saldie",9,2.19722457733622,6.89669433162271
"357",12,261,"j","j",1,1164,0,"B2","Label","A_Saldie",9,2.19722457733622,7.05961762829138
"358",12,262,"f","f",1,824,0,"A3","Label","A_Saldie",9,2.19722457733622,6.71417052990947
"359",12,263,"j","j",1,655,0,"B4","Label","A_Saldie",9,2.19722457733622,6.48463523563525
"360",12,264,"j","j",1,744,0,"B3","Label","A_Saldie",9,2.19722457733622,6.61204103483309
"361",10,1,"j","f",0,4707,1,"B3","NoLabel","NoName",10,2.30258509299405,8.45680604140114
"362",10,2,"f","j",0,4797,1,"A1","NoLabel","NoName",10,2.30258509299405,8.47574600150206
"363",10,3,"j","j",1,3321,1,"B5","NoLabel","NoName",10,2.30258509299405,8.10802122137675
"364",10,4,"j","f",0,1847,1,"B2","NoLabel","NoName",10,2.30258509299405,7.52131798019924
"365",10,5,"f","j",0,2607,1,"A5","NoLabel","NoName",10,2.30258509299405,7.8659554139335
"366",10,6,"f","f",1,4290,1,"A3","NoLabel","NoName",10,2.30258509299405,8.36404201192206
"367",10,7,"f","f",1,4337,1,"A2","NoLabel","NoName",10,2.30258509299405,8.37493814383537
"368",10,8,"f","f",1,2377,1,"A6","NoLabel","NoName",10,2.30258509299405,7.77359446736019
"369",10,9,"j","j",1,2756,1,"B4","NoLabel","NoName",10,2.30258509299405,7.92153563213355
"370",10,10,"j","j",1,987,1,"B6","NoLabel","NoName",10,2.30258509299405,6.89467003943348
"371",10,11,"f","f",1,1400,1,"A4","NoLabel","NoName",10,2.30258509299405,7.24422751560335
"372",10,12,"j","j",1,1368,1,"B1","NoLabel","NoName",10,2.30258509299405,7.2211050981825
"373",10,13,"f","f",1,1117,2,"A4","NoLabel","NoName",10,2.30258509299405,7.0184017990692
"374",10,14,"j","j",1,1303,2,"B5","NoLabel","NoName",10,2.30258509299405,7.17242457712485
"375",10,15,"f","f",1,811,2,"A5","NoLabel","NoName",10,2.30258509299405,6.69826805411541
"376",10,16,"f","j",0,1374,2,"A2","NoLabel","NoName",10,2.30258509299405,7.22548147278229
"377",10,17,"f","f",1,700,2,"A3","NoLabel","NoName",10,2.30258509299405,6.5510803350434
"378",10,18,"f","f",1,2194,2,"A1","NoLabel","NoName",10,2.30258509299405,7.69348164083518
"379",10,19,"j","f",0,805,2,"B2","NoLabel","NoName",10,2.30258509299405,6.69084227741856
"380",10,20,"j","j",1,1144,2,"B4","NoLabel","NoName",10,2.30258509299405,7.04228617193974
"381",10,21,"f","f",1,4515,2,"A6","NoLabel","NoName",10,2.30258509299405,8.41516046585109
"382",10,22,"j","f",0,1449,2,"B1","NoLabel","NoName",10,2.30258509299405,7.27862894232068
"383",10,23,"j","j",1,1059,2,"B6","NoLabel","NoName",10,2.30258509299405,6.96508034560141
"384",10,24,"j","j",1,2274,2,"B3","NoLabel","NoName",10,2.30258509299405,7.72929567431048
"385",10,25,"j","j",1,918,3,"B4","NoLabel","NoName",10,2.30258509299405,6.82219739062049
"386",10,26,"f","f",1,1529,3,"A1","NoLabel","NoName",10,2.30258509299405,7.33236920592906
"387",10,27,"j","f",0,654,3,"B1","NoLabel","NoName",10,2.30258509299405,6.4831073514572
"388",10,28,"f","f",1,783,3,"A3","NoLabel","NoName",10,2.30258509299405,6.6631326959908
"389",10,29,"f","f",1,716,3,"A4","NoLabel","NoName",10,2.30258509299405,6.57368016696065
"390",10,30,"j","j",1,1175,3,"B6","NoLabel","NoName",10,2.30258509299405,7.06902342657826
"391",10,31,"f","f",1,1547,3,"A2","NoLabel","NoName",10,2.30258509299405,7.34407285057307
"392",10,32,"f","f",1,809,3,"A6","NoLabel","NoName",10,2.30258509299405,6.69579891705849
"393",10,33,"j","j",1,1285,3,"B5","NoLabel","NoName",10,2.30258509299405,7.15851399732932
"394",10,34,"f","f",1,733,3,"A5","NoLabel","NoName",10,2.30258509299405,6.59714570188665
"395",10,35,"j","j",1,1006,3,"B3","NoLabel","NoName",10,2.30258509299405,6.91373735065968
"396",10,36,"j","j",1,3402,3,"B2","NoLabel","NoName",10,2.30258509299405,8.13211877295581
"397",10,37,"f","f",1,913,4,"A2","NoLabel","NoName",10,2.30258509299405,6.81673588059497
"398",10,38,"f","f",1,794,4,"A6","NoLabel","NoName",10,2.30258509299405,6.67708346124714
"399",10,39,"f","f",1,670,4,"A3","NoLabel","NoName",10,2.30258509299405,6.50727771238501
"400",10,40,"j","j",1,889,4,"B6","NoLabel","NoName",10,2.30258509299405,6.7900972355139
"401",10,41,"j","j",1,627,4,"B4","NoLabel","NoName",10,2.30258509299405,6.44094654063292
"402",10,42,"j","j",1,533,4,"B3","NoLabel","NoName",10,2.30258509299405,6.27852142416584
"403",10,43,"j","j",1,556,4,"B5","NoLabel","NoName",10,2.30258509299405,6.32076829425058
"404",10,44,"f","f",1,4387,4,"A1","NoLabel","NoName",10,2.30258509299405,8.38640090116621
"405",10,45,"f","f",1,795,4,"A4","NoLabel","NoName",10,2.30258509299405,6.67834211465433
"406",10,46,"j","f",0,1941,4,"B1","NoLabel","NoName",10,2.30258509299405,7.57095858316901
"407",10,47,"f","f",1,698,4,"A5","NoLabel","NoName",10,2.30258509299405,6.54821910276237
"408",10,48,"j","j",1,1038,4,"B2","NoLabel","NoName",10,2.30258509299405,6.94505106372583
"409",10,49,"f","f",1,801,5,"A6","NoLabel","NoName",10,2.30258509299405,6.68586094706836
"410",10,50,"j","j",1,679,5,"B6","NoLabel","NoName",10,2.30258509299405,6.5206211275587
"411",10,51,"j","j",1,496,5,"B4","NoLabel","NoName",10,2.30258509299405,6.20657592672493
"412",10,52,"f","f",1,646,5,"A3","NoLabel","NoName",10,2.30258509299405,6.4707995037826
"413",10,53,"","",0,NA,5,"A1","NoLabel","NoName",10,2.30258509299405,NA
"414",10,54,"j","j",1,781,5,"B5","NoLabel","NoName",10,2.30258509299405,6.66057514983969
"415",10,55,"j","j",1,2751,5,"B2","NoLabel","NoName",10,2.30258509299405,7.91971976092457
"416",10,56,"f","f",1,614,5,"A5","NoLabel","NoName",10,2.30258509299405,6.41999492814714
"417",10,57,"j","j",1,630,5,"B3","NoLabel","NoName",10,2.30258509299405,6.44571981938558
"418",10,58,"f","f",1,629,5,"A4","NoLabel","NoName",10,2.30258509299405,6.44413125670044
"419",10,59,"f","f",1,2667,5,"A2","NoLabel","NoName",10,2.30258509299405,7.88870952418201
"420",10,60,"j","f",0,845,5,"B1","NoLabel","NoName",10,2.30258509299405,6.73933662735717
"421",10,61,"j","j",1,1186,6,"B2","NoLabel","NoName",10,2.30258509299405,7.07834157955767
"422",10,62,"f","f",1,583,6,"A4","NoLabel","NoName",10,2.30258509299405,6.36818718635049
"423",10,63,"f","f",1,633,6,"A3","NoLabel","NoName",10,2.30258509299405,6.45047042214418
"424",10,64,"j","j",1,962,6,"B5","NoLabel","NoName",10,2.30258509299405,6.86901445066571
"425",10,65,"j","j",1,524,6,"B3","NoLabel","NoName",10,2.30258509299405,6.26149168432104
"426",10,66,"f","f",1,1165,6,"A1","NoLabel","NoName",10,2.30258509299405,7.0604763659998
"427",10,67,"j","j",1,647,6,"B6","NoLabel","NoName",10,2.30258509299405,6.4723462945009
"428",10,68,"f","f",1,1323,6,"A2","NoLabel","NoName",10,2.30258509299405,7.18765716411496
"429",10,69,"f","f",1,685,6,"A5","NoLabel","NoName",10,2.30258509299405,6.52941883826223
"430",10,70,"j","j",1,601,6,"B4","NoLabel","NoName",10,2.30258509299405,6.39859493453521
"431",10,71,"f","f",1,3463,6,"A6","NoLabel","NoName",10,2.30258509299405,8.14989054440242
"432",10,72,"j","f",0,2668,6,"B1","NoLabel","NoName",10,2.30258509299405,7.88908440703551
"433",10,73,"j","j",1,1122,7,"B5","NoLabel","NoName",10,2.30258509299405,7.02286808608264
"434",10,74,"f","f",1,655,7,"A3","NoLabel","NoName",10,2.30258509299405,6.48463523563525
"435",10,75,"j","j",1,698,7,"B3","NoLabel","NoName",10,2.30258509299405,6.54821910276237
"436",10,76,"f","f",1,576,7,"A6","NoLabel","NoName",10,2.30258509299405,6.35610766069589
"437",10,77,"j","f",0,988,7,"B1","NoLabel","NoName",10,2.30258509299405,6.89568269774787
"438",10,78,"j","j",1,1110,7,"B2","NoLabel","NoName",10,2.30258509299405,7.01211529430638
"439",10,79,"f","j",0,1812,7,"A1","NoLabel","NoName",10,2.30258509299405,7.50218648660292
"440",10,80,"f","f",1,574,7,"A5","NoLabel","NoName",10,2.30258509299405,6.35262939631957
"441",10,81,"f","f",1,1081,7,"A2","NoLabel","NoName",10,2.30258509299405,6.98564181763921
"442",10,82,"j","j",1,663,7,"B6","NoLabel","NoName",10,2.30258509299405,6.49677499018586
"443",10,83,"f","f",1,728,7,"A4","NoLabel","NoName",10,2.30258509299405,6.59030104819669
"444",10,84,"j","j",1,634,7,"B4","NoLabel","NoName",10,2.30258509299405,6.45204895443723
"445",10,85,"f","f",1,411,8,"A5","NoLabel","NoName",10,2.30258509299405,6.01859321449623
"446",10,86,"j","f",0,1314,8,"B1","NoLabel","NoName",10,2.30258509299405,7.18083119904456
"447",10,87,"j","j",1,860,8,"B6","NoLabel","NoName",10,2.30258509299405,6.75693238924755
"448",10,88,"j","j",1,1131,8,"B2","NoLabel","NoName",10,2.30258509299405,7.03085747611612
"449",10,89,"f","f",1,1686,8,"A2","NoLabel","NoName",10,2.30258509299405,7.4301141385618
"450",10,90,"j","j",1,605,8,"B3","NoLabel","NoName",10,2.30258509299405,6.40522845803084
"451",10,91,"f","f",1,686,8,"A4","NoLabel","NoName",10,2.30258509299405,6.53087762772588
"452",10,92,"f","f",1,1127,8,"A1","NoLabel","NoName",10,2.30258509299405,7.02731451403978
"453",10,93,"f","f",1,643,8,"A3","NoLabel","NoName",10,2.30258509299405,6.46614472423762
"454",10,94,"j","j",1,609,8,"B5","NoLabel","NoName",10,2.30258509299405,6.4118182677099
"455",10,95,"j","j",1,626,8,"B4","NoLabel","NoName",10,2.30258509299405,6.4393503711001
"456",10,96,"f","f",1,724,8,"A6","NoLabel","NoName",10,2.30258509299405,6.58479139238572
"457",10,97,"f","f",1,822,9,"A2","NoLabel","NoName",10,2.30258509299405,6.71174039505618
"458",10,98,"f","f",1,627,9,"A4","NoLabel","NoName",10,2.30258509299405,6.44094654063292
"459",10,99,"j","j",1,840,9,"B2","NoLabel","NoName",10,2.30258509299405,6.73340189183736
"460",10,100,"j","j",1,574,9,"B4","NoLabel","NoName",10,2.30258509299405,6.35262939631957
"461",10,101,"j","f",0,931,9,"B1","NoLabel","NoName",10,2.30258509299405,6.83625927727707
"462",10,102,"j","j",1,553,9,"B5","NoLabel","NoName",10,2.30258509299405,6.31535800152233
"463",10,103,"f","f",1,1718,9,"A1","NoLabel","NoName",10,2.30258509299405,7.4489161025442
"464",10,104,"f","f",1,627,9,"A3","NoLabel","NoName",10,2.30258509299405,6.44094654063292
"465",10,105,"j","j",1,588,9,"B3","NoLabel","NoName",10,2.30258509299405,6.37672694789863
"466",10,106,"f","f",1,599,9,"A6","NoLabel","NoName",10,2.30258509299405,6.39526159811545
"467",10,107,"f","f",1,595,9,"A5","NoLabel","NoName",10,2.30258509299405,6.38856140554563
"468",10,108,"j","j",1,743,9,"B6","NoLabel","NoName",10,2.30258509299405,6.61069604471776
"469",10,109,"j","j",1,686,10,"B4","NoLabel","NoName",10,2.30258509299405,6.53087762772588
"470",10,110,"f","f",1,1388,10,"A2","NoLabel","NoName",10,2.30258509299405,7.23561914106675
"471",10,111,"j","j",1,2334,10,"B1","NoLabel","NoName",10,2.30258509299405,7.7553388128465
"472",10,112,"f","f",1,647,10,"A6","NoLabel","NoName",10,2.30258509299405,6.4723462945009
"473",10,113,"f","f",1,767,10,"A1","NoLabel","NoName",10,2.30258509299405,6.64248680136726
"474",10,114,"f","f",1,686,10,"A3","NoLabel","NoName",10,2.30258509299405,6.53087762772588
"475",10,115,"f","f",1,734,10,"A4","NoLabel","NoName",10,2.30258509299405,6.59850902861452
"476",10,116,"j","j",1,639,10,"B6","NoLabel","NoName",10,2.30258509299405,6.45990445437753
"477",10,117,"j","j",1,507,10,"B5","NoLabel","NoName",10,2.30258509299405,6.22851100359118
"478",10,118,"f","f",1,1013,10,"A5","NoLabel","NoName",10,2.30258509299405,6.92067150424868
"479",10,119,"j","j",1,942,10,"B2","NoLabel","NoName",10,2.30258509299405,6.84800527457636
"480",10,120,"j","j",1,828,10,"B3","NoLabel","NoName",10,2.30258509299405,6.71901315438526
"481",10,253,"f","f",1,1564,0,"A4","NoLabel","NoName",10,2.30258509299405,7.35500192110526
"482",10,254,"j","j",1,630,0,"B5","NoLabel","NoName",10,2.30258509299405,6.44571981938558
"483",10,255,"f","f",1,702,0,"A6","NoLabel","NoName",10,2.30258509299405,6.55393340402581
"484",10,256,"f","f",1,1037,0,"A1","NoLabel","NoName",10,2.30258509299405,6.94408720822953
"485",10,257,"j","j",1,1092,0,"B1","NoLabel","NoName",10,2.30258509299405,6.99576615630485
"486",10,258,"f","f",1,1169,0,"A2","NoLabel","NoName",10,2.30258509299405,7.06390396147207
"487",10,259,"f","f",1,779,0,"A5","NoLabel","NoName",10,2.30258509299405,6.65801104587075
"488",10,260,"j","j",1,953,0,"B6","NoLabel","NoName",10,2.30258509299405,6.8596149036542
"489",10,261,"j","j",1,889,0,"B2","NoLabel","NoName",10,2.30258509299405,6.7900972355139
"490",10,262,"j","j",1,726,0,"B4","NoLabel","NoName",10,2.30258509299405,6.5875500148248
"491",10,263,"j","j",1,968,0,"B3","NoLabel","NoName",10,2.30258509299405,6.87523208727658
"492",10,264,"f","f",1,618,0,"A3","NoLabel","NoName",10,2.30258509299405,6.42648845745769
"493",15,1,"j","f",0,3728,1,"B1","NoLabel","NoName",4,1.38629436111989,8.22362717580548
"494",15,2,"f","f",1,1830,1,"A3","NoLabel","NoName",4,1.38629436111989,7.51207124583547
"495",15,3,"f","f",1,710,1,"A4","NoLabel","NoName",4,1.38629436111989,6.56526497003536
"496",15,4,"f","f",1,652,1,"A5","NoLabel","NoName",4,1.38629436111989,6.48004456192665
"497",15,5,"f","f",1,677,1,"A6","NoLabel","NoName",4,1.38629436111989,6.51767127291227
"498",15,6,"j","j",1,823,1,"B5","NoLabel","NoName",4,1.38629436111989,6.71295620067707
"499",15,7,"f","f",1,648,1,"A1","NoLabel","NoName",4,1.38629436111989,6.47389069635227
"500",15,8,"j","j",1,674,1,"B6","NoLabel","NoName",4,1.38629436111989,6.51323011091231
"501",15,9,"j","j",1,551,1,"B3","NoLabel","NoName",4,1.38629436111989,6.31173480915291
"502",15,10,"j","f",0,1115,1,"B2","NoLabel","NoName",4,1.38629436111989,7.01660968389422
"503",15,11,"j","j",1,821,1,"B4","NoLabel","NoName",4,1.38629436111989,6.71052310945243
"504",15,12,"f","f",1,800,1,"A2","NoLabel","NoName",4,1.38629436111989,6.68461172766793
"505",15,13,"f","j",0,1004,2,"A6","NoLabel","NoName",4,1.38629436111989,6.91174730025167
"506",15,14,"j","j",1,860,2,"B4","NoLabel","NoName",4,1.38629436111989,6.75693238924755
"507",15,15,"f","f",1,1188,2,"A5","NoLabel","NoName",4,1.38629436111989,7.08002649992259
"508",15,16,"f","f",1,790,2,"A2","NoLabel","NoName",4,1.38629436111989,6.67203294546107
"509",15,17,"f","f",1,473,2,"A1","NoLabel","NoName",4,1.38629436111989,6.15909538849193
"510",15,18,"f","f",1,1445,2,"A4","NoLabel","NoName",4,1.38629436111989,7.27586460054653
"511",15,19,"j","j",1,624,2,"B6","NoLabel","NoName",4,1.38629436111989,6.43615036836943
"512",15,20,"j","j",1,1045,2,"B1","NoLabel","NoName",4,1.38629436111989,6.95177216439891
"513",15,21,"f","f",1,736,2,"A3","NoLabel","NoName",4,1.38629436111989,6.60123011872888
"514",15,22,"j","j",1,519,2,"B5","NoLabel","NoName",4,1.38629436111989,6.25190388316589
"515",15,23,"j","j",1,502,2,"B3","NoLabel","NoName",4,1.38629436111989,6.21860011969173
"516",15,24,"j","j",1,673,2,"B2","NoLabel","NoName",4,1.38629436111989,6.51174532964473
"517",15,25,"f","f",1,1460,3,"A6","NoLabel","NoName",4,1.38629436111989,7.28619171470238
"518",15,26,"j","j",1,574,3,"B5","NoLabel","NoName",4,1.38629436111989,6.35262939631957
"519",15,27,"f","f",1,546,3,"A1","NoLabel","NoName",4,1.38629436111989,6.30261897574491
"520",15,28,"j","j",1,420,3,"B2","NoLabel","NoName",4,1.38629436111989,6.04025471127741
"521",15,29,"j","f",0,615,3,"B6","NoLabel","NoName",4,1.38629436111989,6.42162226780652
"522",15,30,"f","f",1,998,3,"A3","NoLabel","NoName",4,1.38629436111989,6.90575327631146
"523",15,31,"f","f",1,701,3,"A4","NoLabel","NoName",4,1.38629436111989,6.55250788703459
"524",15,32,"j","j",1,446,3,"B4","NoLabel","NoName",4,1.38629436111989,6.10031895202006
"525",15,33,"f","f",1,629,3,"A2","NoLabel","NoName",4,1.38629436111989,6.44413125670044
"526",15,34,"j","j",1,612,3,"B1","NoLabel","NoName",4,1.38629436111989,6.41673228251233
"527",15,35,"j","j",1,496,3,"B3","NoLabel","NoName",4,1.38629436111989,6.20657592672493
"528",15,36,"f","j",0,820,3,"A5","NoLabel","NoName",4,1.38629436111989,6.7093043402583
"529",15,37,"f","f",1,1106,4,"A6","NoLabel","NoName",4,1.38629436111989,7.00850518208228
"530",15,38,"j","j",1,714,4,"B3","NoLabel","NoName",4,1.38629436111989,6.57088296233958
"531",15,39,"f","f",1,657,4,"A2","NoLabel","NoName",4,1.38629436111989,6.48768401848461
"532",15,40,"f","f",1,845,4,"A5","NoLabel","NoName",4,1.38629436111989,6.73933662735717
"533",15,41,"f","f",1,677,4,"A1","NoLabel","NoName",4,1.38629436111989,6.51767127291227
"534",15,42,"j","j",1,785,4,"B2","NoLabel","NoName",4,1.38629436111989,6.66568371778241
"535",15,43,"j","j",1,518,4,"B4","NoLabel","NoName",4,1.38629436111989,6.24997524225948
"536",15,44,"j","j",1,694,4,"B1","NoLabel","NoName",4,1.38629436111989,6.5424719605068
"537",15,45,"f","f",1,708,4,"A4","NoLabel","NoName",4,1.38629436111989,6.56244409369372
"538",15,46,"j","j",1,600,4,"B6","NoLabel","NoName",4,1.38629436111989,6.39692965521615
"539",15,47,"j","j",1,539,4,"B5","NoLabel","NoName",4,1.38629436111989,6.289715570909
"540",15,48,"f","f",1,852,4,"A3","NoLabel","NoName",4,1.38629436111989,6.74758652682932
"541",15,253,"f","f",1,992,0,"A1","NoLabel","NoName",4,1.38629436111989,6.89972310728487
"542",15,254,"j","j",1,928,0,"B5","NoLabel","NoName",4,1.38629436111989,6.8330317327862
"543",15,255,"f","f",1,711,0,"A3","NoLabel","NoName",4,1.38629436111989,6.56667242980324
"544",15,256,"j","j",1,1271,0,"B2","NoLabel","NoName",4,1.38629436111989,7.14755927118945
"545",15,257,"j","j",1,929,0,"B4","NoLabel","NoName",4,1.38629436111989,6.83410873881384
"546",15,258,"j","j",1,1009,0,"B1","NoLabel","NoName",4,1.38629436111989,6.91671502035361
"547",15,259,"f","f",1,621,0,"A4","NoLabel","NoName",4,1.38629436111989,6.43133108193348
"548",15,260,"f","f",1,760,0,"A2","NoLabel","NoName",4,1.38629436111989,6.63331843328038
"549",15,261,"f","f",1,1308,0,"A5","NoLabel","NoName",4,1.38629436111989,7.17625453201714
"550",15,262,"j","j",1,746,0,"B3","NoLabel","NoName",4,1.38629436111989,6.61472560020376
"551",15,263,"f","f",1,889,0,"A6","NoLabel","NoName",4,1.38629436111989,6.7900972355139
"552",15,264,"j","j",1,1095,0,"B6","NoLabel","NoName",4,1.38629436111989,6.9985096422506
"553",16,1,"j","f",0,6165,1,"B1","Label","A_Saldie",6,1.79175946922805,8.72664341559844
"554",16,2,"j","f",0,5964,1,"B2","Label","A_Saldie",6,1.79175946922805,8.69349667588463
"555",16,3,"","",0,NA,1,"A6","Label","A_Saldie",6,1.79175946922805,NA
"556",16,4,"f","j",0,1732,1,"A5","Label","A_Saldie",6,1.79175946922805,7.45703208912238
"557",16,5,"f","f",1,6469,1,"A2","Label","A_Saldie",6,1.79175946922805,8.77477681604399
"558",16,6,"j","f",0,1128,1,"B3","Label","A_Saldie",6,1.79175946922805,7.028201432058
"559",16,7,"j","f",0,5276,1,"B4","Label","A_Saldie",6,1.79175946922805,8.5709235138372
"560",16,8,"f","j",0,2732,1,"A4","Label","A_Saldie",6,1.79175946922805,7.91278922069068
"561",16,9,"j","j",1,6879,1,"B5","Label","A_Saldie",6,1.79175946922805,8.83622857152601
"562",16,10,"f","j",0,1419,1,"A1","Label","A_Saldie",6,1.79175946922805,7.25770767716004
"563",16,11,"j","f",0,3836,1,"B6","Label","A_Saldie",6,1.79175946922805,8.25218543600333
"564",16,12,"f","j",0,1422,1,"A3","Label","A_Saldie",6,1.79175946922805,7.25981961036319
"565",16,13,"f","j",0,4058,2,"A6","Label","A_Saldie",6,1.79175946922805,8.30844552038576
"566",16,14,"j","j",1,2579,2,"B3","Label","A_Saldie",6,1.79175946922805,7.85515700588134
"567",16,15,"f","f",1,3185,2,"A2","Label","A_Saldie",6,1.79175946922805,8.06620756800626
"568",16,16,"f","j",0,4050,2,"A3","Label","A_Saldie",6,1.79175946922805,8.30647216010058
"569",16,17,"j","j",1,1749,2,"B4","Label","A_Saldie",6,1.79175946922805,7.4667994750186
"570",16,18,"f","f",1,1116,2,"A1","Label","A_Saldie",6,1.79175946922805,7.01750614294126
"571",16,19,"f","j",0,981,2,"A4","Label","A_Saldie",6,1.79175946922805,6.88857245956536
"572",16,20,"f","f",1,1840,2,"A5","Label","A_Saldie",6,1.79175946922805,7.51752085060303
"573",16,21,"j","j",1,1908,2,"B6","Label","A_Saldie",6,1.79175946922805,7.55381085200823
"574",16,22,"j","j",1,2584,2,"B5","Label","A_Saldie",6,1.79175946922805,7.85709386490249
"575",16,23,"j","f",0,2192,2,"B2","Label","A_Saldie",6,1.79175946922805,7.69256964806791
"576",16,24,"j","j",1,3093,2,"B1","Label","A_Saldie",6,1.79175946922805,8.03689677268507
"577",16,25,"f","j",0,1201,3,"A1","Label","A_Saldie",6,1.79175946922805,7.09090982207998
"578",16,26,"f","f",1,1964,3,"A6","Label","A_Saldie",6,1.79175946922805,7.58273848891441
"579",16,27,"f","f",1,1836,3,"A4","Label","A_Saldie",6,1.79175946922805,7.51534457118044
"580",16,28,"j","j",1,4516,3,"B1","Label","A_Saldie",6,1.79175946922805,8.41538192526955
"581",16,29,"f","f",1,1895,3,"A2","Label","A_Saldie",6,1.79175946922805,7.54697411751653
"582",16,30,"j","j",1,3264,3,"B6","Label","A_Saldie",6,1.79175946922805,8.090708716084
"583",16,31,"j","j",1,2032,3,"B2","Label","A_Saldie",6,1.79175946922805,7.61677580869837
"584",16,32,"j","j",1,1450,3,"B4","Label","A_Saldie",6,1.79175946922805,7.27931883541462
"585",16,33,"j","f",0,1990,3,"B3","Label","A_Saldie",6,1.79175946922805,7.59588991771854
"586",16,34,"f","j",0,5063,3,"A5","Label","A_Saldie",6,1.79175946922805,8.52971447196991
"587",16,35,"j","f",0,1080,3,"B5","Label","A_Saldie",6,1.79175946922805,6.98471632011827
"588",16,36,"f","f",1,1938,3,"A3","Label","A_Saldie",6,1.79175946922805,7.56941179245071
"589",16,37,"j","j",1,2121,4,"B2","Label","A_Saldie",6,1.79175946922805,7.65964295456468
"590",16,38,"j","j",1,687,4,"B1","Label","A_Saldie",6,1.79175946922805,6.53233429222235
"591",16,39,"f","f",1,975,4,"A5","Label","A_Saldie",6,1.79175946922805,6.88243747099785
"592",16,40,"j","j",1,1037,4,"B4","Label","A_Saldie",6,1.79175946922805,6.94408720822953
"593",16,41,"j","j",1,2039,4,"B3","Label","A_Saldie",6,1.79175946922805,7.62021477057445
"594",16,42,"f","f",1,859,4,"A3","Label","A_Saldie",6,1.79175946922805,6.75576892198425
"595",16,43,"f","f",1,909,4,"A4","Label","A_Saldie",6,1.79175946922805,6.81234509417748
"596",16,44,"j","j",1,777,4,"B5","Label","A_Saldie",6,1.79175946922805,6.65544035036765
"597",16,45,"f","j",0,757,4,"A1","Label","A_Saldie",6,1.79175946922805,6.62936325343745
"598",16,46,"f","f",1,556,4,"A6","Label","A_Saldie",6,1.79175946922805,6.32076829425058
"599",16,47,"f","j",0,2931,4,"A2","Label","A_Saldie",6,1.79175946922805,7.98309894071089
"600",16,48,"j","j",1,740,4,"B6","Label","A_Saldie",6,1.79175946922805,6.60665018619822
"601",16,49,"f","f",1,709,5,"A2","Label","A_Saldie",6,1.79175946922805,6.56385552653213
"602",16,50,"j","j",1,734,5,"B5","Label","A_Saldie",6,1.79175946922805,6.59850902861452
"603",16,51,"f","f",1,2354,5,"A6","Label","A_Saldie",6,1.79175946922805,7.76387128782022
"604",16,52,"j","j",1,825,5,"B4","Label","A_Saldie",6,1.79175946922805,6.71538338633468
"605",16,53,"j","j",1,716,5,"B6","Label","A_Saldie",6,1.79175946922805,6.57368016696065
"606",16,54,"j","j",1,933,5,"B2","Label","A_Saldie",6,1.79175946922805,6.83840520084734
"607",16,55,"f","f",1,900,5,"A4","Label","A_Saldie",6,1.79175946922805,6.80239476332431
"608",16,56,"j","j",1,900,5,"B1","Label","A_Saldie",6,1.79175946922805,6.80239476332431
"609",16,57,"j","j",1,708,5,"B3","Label","A_Saldie",6,1.79175946922805,6.56244409369372
"610",16,58,"f","f",1,715,5,"A3","Label","A_Saldie",6,1.79175946922805,6.57228254269401
"611",16,59,"f","j",0,1645,5,"A1","Label","A_Saldie",6,1.79175946922805,7.40549566319947
"612",16,60,"f","f",1,971,5,"A5","Label","A_Saldie",6,1.79175946922805,6.87832646829133
"613",16,61,"f","f",1,1756,6,"A6","Label","A_Saldie",6,1.79175946922805,7.47079377419506
"614",16,62,"f","f",1,816,6,"A5","Label","A_Saldie",6,1.79175946922805,6.70441435496411
"615",16,63,"j","j",1,575,6,"B4","Label","A_Saldie",6,1.79175946922805,6.35437004079735
"616",16,64,"j","j",1,1096,6,"B1","Label","A_Saldie",6,1.79175946922805,6.99942246750796
"617",16,65,"j","j",1,1053,6,"B3","Label","A_Saldie",6,1.79175946922805,6.95939851213398
"618",16,66,"f","f",1,930,6,"A4","Label","A_Saldie",6,1.79175946922805,6.8351845861473
"619",16,67,"f","f",1,2015,6,"A1","Label","A_Saldie",6,1.79175946922805,7.60837447438078
"620",16,68,"j","j",1,1819,6,"B2","Label","A_Saldie",6,1.79175946922805,7.50604217851812
"621",16,69,"f","f",1,1623,6,"A2","Label","A_Saldie",6,1.79175946922805,7.39203156751459
"622",16,70,"j","j",1,911,6,"B6","Label","A_Saldie",6,1.79175946922805,6.81454289725996
"623",16,71,"j","j",1,938,6,"B5","Label","A_Saldie",6,1.79175946922805,6.84374994900622
"624",16,72,"f","f",1,1408,6,"A3","Label","A_Saldie",6,1.79175946922805,7.24992553671799
"625",16,253,"j","j",1,3452,0,"B2","Label","A_Saldie",6,1.79175946922805,8.14670905220332
"626",16,254,"j","j",1,2943,0,"B5","Label","A_Saldie",6,1.79175946922805,7.98718474823347
"627",16,255,"j","j",1,806,0,"B6","Label","A_Saldie",6,1.79175946922805,6.69208374250663
"628",16,256,"f","f",1,577,0,"A3","Label","A_Saldie",6,1.79175946922805,6.3578422665081
"629",16,257,"f","f",1,817,0,"A6","Label","A_Saldie",6,1.79175946922805,6.70563909486
"630",16,258,"f","f",1,608,0,"A4","Label","A_Saldie",6,1.79175946922805,6.41017488196617
"631",16,259,"f","f",1,727,0,"A5","Label","A_Saldie",6,1.79175946922805,6.58892647753352
"632",16,260,"f","f",1,1964,0,"A1","Label","A_Saldie",6,1.79175946922805,7.58273848891441
"633",16,261,"f","f",1,807,0,"A2","Label","A_Saldie",6,1.79175946922805,6.69332366826995
"634",16,262,"j","j",1,731,0,"B4","Label","A_Saldie",6,1.79175946922805,6.59441345974978
"635",16,263,"j","j",1,471,0,"B3","Label","A_Saldie",6,1.79175946922805,6.15485809401642
"636",16,264,"j","j",1,949,0,"B1","Label","A_Saldie",6,1.79175946922805,6.85540879860993
"637",18,1,"j","f",0,2327,1,"B1","NoLabel","NoName",5,1.6094379124341,7.75233516330229
"638",18,2,"f","f",1,2769,1,"A6","NoLabel","NoName",5,1.6094379124341,7.92624152317096
"639",18,3,"f","f",1,2601,1,"A3","NoLabel","NoName",5,1.6094379124341,7.86365126544865
"640",18,4,"j","f",0,1973,1,"B6","NoLabel","NoName",5,1.6094379124341,7.58731050602262
"641",18,5,"j","j",1,2346,1,"B2","NoLabel","NoName",5,1.6094379124341,7.76046702921342
"642",18,6,"j","j",1,3804,1,"B5","NoLabel","NoName",5,1.6094379124341,8.24380842366528
"643",18,7,"f","j",0,1347,1,"A1","NoLabel","NoName",5,1.6094379124341,7.20563517641036
"644",18,8,"j","j",1,1879,1,"B4","NoLabel","NoName",5,1.6094379124341,7.53849499941346
"645",18,9,"j","j",1,1241,1,"B3","NoLabel","NoName",5,1.6094379124341,7.12367278520461
"646",18,10,"f","f",1,832,1,"A5","NoLabel","NoName",5,1.6094379124341,6.72383244082121
"647",18,11,"f","f",1,852,1,"A4","NoLabel","NoName",5,1.6094379124341,6.74758652682932
"648",18,12,"f","f",1,2027,1,"A2","NoLabel","NoName",5,1.6094379124341,7.614312146452
"649",18,13,"f","f",1,898,2,"A6","NoLabel","NoName",5,1.6094379124341,6.8001700683022
"650",18,14,"f","f",1,644,2,"A3","NoLabel","NoName",5,1.6094379124341,6.46769872610435
"651",18,15,"j","j",1,1570,2,"B5","NoLabel","NoName",5,1.6094379124341,7.35883089834235
"652",18,16,"f","f",1,1030,2,"A5","NoLabel","NoName",5,1.6094379124341,6.93731408122368
"653",18,17,"j","j",1,1355,2,"B6","NoLabel","NoName",5,1.6094379124341,7.2115567333138
"654",18,18,"j","j",1,2072,2,"B3","NoLabel","NoName",5,1.6094379124341,7.63626960337937
"655",18,19,"f","f",1,911,2,"A4","NoLabel","NoName",5,1.6094379124341,6.81454289725996
"656",18,20,"j","j",1,2098,2,"B4","NoLabel","NoName",5,1.6094379124341,7.64873978895624
"657",18,21,"j","f",0,1631,2,"B2","NoLabel","NoName",5,1.6094379124341,7.39694860262101
"658",18,22,"f","j",0,1760,2,"A2","NoLabel","NoName",5,1.6094379124341,7.4730690880322
"659",18,23,"j","j",1,4131,2,"B1","NoLabel","NoName",5,1.6094379124341,8.32627478739676
"660",18,24,"f","f",1,1534,2,"A1","NoLabel","NoName",5,1.6094379124341,7.3356339819272
"661",18,25,"j","j",1,1681,3,"B6","NoLabel","NoName",5,1.6094379124341,7.42714413340862
"662",18,26,"f","f",1,739,3,"A3","NoLabel","NoName",5,1.6094379124341,6.6052979209482
"663",18,27,"j","j",1,2521,3,"B3","NoLabel","NoName",5,1.6094379124341,7.83241092718792
"664",18,28,"f","f",1,762,3,"A5","NoLabel","NoName",5,1.6094379124341,6.63594655568665
"665",18,29,"j","f",0,2318,3,"B2","NoLabel","NoName",5,1.6094379124341,7.7484600238997
"666",18,30,"j","j",1,984,3,"B1","NoLabel","NoName",5,1.6094379124341,6.89162589705225
"667",18,31,"j","j",1,1545,3,"B5","NoLabel","NoName",5,1.6094379124341,7.34277918933185
"668",18,32,"f","f",1,903,3,"A4","NoLabel","NoName",5,1.6094379124341,6.80572255341699
"669",18,33,"f","f",1,2945,3,"A2","NoLabel","NoName",5,1.6094379124341,7.98786409608569
"670",18,34,"f","f",1,2604,3,"A6","NoLabel","NoName",5,1.6094379124341,7.86480400332846
"671",18,35,"j","j",1,2498,3,"B4","NoLabel","NoName",5,1.6094379124341,7.82324569068552
"672",18,36,"f","f",1,1753,3,"A1","NoLabel","NoName",5,1.6094379124341,7.46908388492123
"673",18,37,"f","f",1,933,4,"A3","NoLabel","NoName",5,1.6094379124341,6.83840520084734
"674",18,38,"j","j",1,1292,4,"B6","NoLabel","NoName",5,1.6094379124341,7.16394668434255
"675",18,39,"j","j",1,3596,4,"B1","NoLabel","NoName",5,1.6094379124341,8.18757739559151
"676",18,40,"f","f",1,713,4,"A4","NoLabel","NoName",5,1.6094379124341,6.5694814204143
"677",18,41,"f","f",1,598,4,"A6","NoLabel","NoName",5,1.6094379124341,6.39359075395063
"678",18,42,"j","j",1,848,4,"B5","NoLabel","NoName",5,1.6094379124341,6.7428806357919
"679",18,43,"f","j",0,1641,4,"A2","NoLabel","NoName",5,1.6094379124341,7.40306109109009
"680",18,44,"j","j",1,1080,4,"B4","NoLabel","NoName",5,1.6094379124341,6.98471632011827
"681",18,45,"j","f",0,2527,4,"B2","NoLabel","NoName",5,1.6094379124341,7.83478810738819
"682",18,46,"j","j",1,1103,4,"B3","NoLabel","NoName",5,1.6094379124341,7.0057890192535
"683",18,47,"f","f",1,4068,4,"A1","NoLabel","NoName",5,1.6094379124341,8.31090675716845
"684",18,48,"f","f",1,959,4,"A5","NoLabel","NoName",5,1.6094379124341,6.86589107488344
"685",18,49,"f","f",1,660,5,"A2","NoLabel","NoName",5,1.6094379124341,6.49223983502047
"686",18,50,"f","f",1,690,5,"A3","NoLabel","NoName",5,1.6094379124341,6.5366915975913
"687",18,51,"j","j",1,903,5,"B6","NoLabel","NoName",5,1.6094379124341,6.80572255341699
"688",18,52,"j","j",1,1493,5,"B5","NoLabel","NoName",5,1.6094379124341,7.30854279753919
"689",18,53,"f","f",1,2075,5,"A1","NoLabel","NoName",5,1.6094379124341,7.6377164326648
"690",18,54,"j","j",1,1090,5,"B2","NoLabel","NoName",5,1.6094379124341,6.99393297522319
"691",18,55,"j","j",1,1272,5,"B3","NoLabel","NoName",5,1.6094379124341,7.14834574390007
"692",18,56,"j","j",1,3386,5,"B1","NoLabel","NoName",5,1.6094379124341,8.12740456269308
"693",18,57,"f","f",1,638,5,"A4","NoLabel","NoName",5,1.6094379124341,6.45833828334479
"694",18,58,"f","f",1,931,5,"A5","NoLabel","NoName",5,1.6094379124341,6.83625927727707
"695",18,59,"f","f",1,760,5,"A6","NoLabel","NoName",5,1.6094379124341,6.63331843328038
"696",18,60,"j","j",1,712,5,"B4","NoLabel","NoName",5,1.6094379124341,6.56807791141198
"697",18,253,"f","f",1,2028,0,"A1","NoLabel","NoName",5,1.6094379124341,7.61480536471107
"698",18,254,"j","j",1,1170,0,"B6","NoLabel","NoName",5,1.6094379124341,7.0647590277918
"699",18,255,"f","f",1,1925,0,"A4","NoLabel","NoName",5,1.6094379124341,7.56268124672188
"700",18,256,"j","j",1,952,0,"B1","NoLabel","NoName",5,1.6094379124341,6.85856503479136
"701",18,257,"j","j",1,921,0,"B2","NoLabel","NoName",5,1.6094379124341,6.82546003625531
"702",18,258,"f","f",1,672,0,"A3","NoLabel","NoName",5,1.6094379124341,6.51025834052315
"703",18,259,"f","f",1,821,0,"A5","NoLabel","NoName",5,1.6094379124341,6.71052310945243
"704",18,260,"j","j",1,775,0,"B3","NoLabel","NoName",5,1.6094379124341,6.65286302935335
"705",18,261,"f","f",1,1191,0,"A2","NoLabel","NoName",5,1.6094379124341,7.0825485693553
"706",18,262,"f","f",1,702,0,"A6","NoLabel","NoName",5,1.6094379124341,6.55393340402581
"707",18,263,"j","j",1,1584,0,"B4","NoLabel","NoName",5,1.6094379124341,7.36770857237437
"708",18,264,"j","j",1,743,0,"B5","NoLabel","NoName",5,1.6094379124341,6.61069604471776
"709",20,1,"j","f",0,1164,1,"B6","Label","A_Saldie",4,1.38629436111989,7.05961762829138
"710",20,2,"f","j",0,858,1,"A6","Label","A_Saldie",4,1.38629436111989,6.75460409948796
"711",20,3,"j","j",1,1106,1,"B5","Label","A_Saldie",4,1.38629436111989,7.00850518208228
"712",20,4,"f","f",1,618,1,"A5","Label","A_Saldie",4,1.38629436111989,6.42648845745769
"713",20,5,"j","j",1,848,1,"B2","Label","A_Saldie",4,1.38629436111989,6.7428806357919
"714",20,6,"j","j",1,599,1,"B4","Label","A_Saldie",4,1.38629436111989,6.39526159811545
"715",20,7,"f","f",1,441,1,"A3","Label","A_Saldie",4,1.38629436111989,6.08904487544685
"716",20,8,"f","f",1,468,1,"A4","Label","A_Saldie",4,1.38629436111989,6.14846829591765
"717",20,9,"j","j",1,669,1,"B1","Label","A_Saldie",4,1.38629436111989,6.50578406012823
"718",20,10,"j","j",1,845,1,"B3","Label","A_Saldie",4,1.38629436111989,6.73933662735717
"719",20,11,"f","j",0,881,1,"A2","Label","A_Saldie",4,1.38629436111989,6.78105762593618
"720",20,12,"f","f",1,461,1,"A1","Label","A_Saldie",4,1.38629436111989,6.13339804299665
"721",20,13,"j","j",1,450,2,"B2","Label","A_Saldie",4,1.38629436111989,6.10924758276437
"722",20,14,"f","f",1,569,2,"A4","Label","A_Saldie",4,1.38629436111989,6.34388043412633
"723",20,15,"f","j",0,938,2,"A5","Label","A_Saldie",4,1.38629436111989,6.84374994900622
"724",20,16,"j","j",1,1620,2,"B5","Label","A_Saldie",4,1.38629436111989,7.39018142822643
"725",20,17,"j","j",1,613,2,"B3","Label","A_Saldie",4,1.38629436111989,6.41836493593621
"726",20,18,"j","j",1,358,2,"B6","Label","A_Saldie",4,1.38629436111989,5.8805329864007
"727",20,19,"f","j",0,611,2,"A2","Label","A_Saldie",4,1.38629436111989,6.4150969591716
"728",20,20,"f","f",1,923,2,"A1","Label","A_Saldie",4,1.38629436111989,6.82762923450285
"729",20,21,"f","f",1,3253,2,"A6","Label","A_Saldie",4,1.38629436111989,8.08733292647335
"730",20,22,"j","j",1,517,2,"B4","Label","A_Saldie",4,1.38629436111989,6.24804287450843
"731",20,23,"j","j",1,801,2,"B1","Label","A_Saldie",4,1.38629436111989,6.68586094706836
"732",20,24,"f","f",1,482,2,"A3","Label","A_Saldie",4,1.38629436111989,6.1779441140506
"733",20,25,"f","f",1,493,3,"A4","Label","A_Saldie",4,1.38629436111989,6.20050917404269
"734",20,26,"f","f",1,371,3,"A1","Label","A_Saldie",4,1.38629436111989,5.91620206260743
"735",20,27,"f","j",0,437,3,"A6","Label","A_Saldie",4,1.38629436111989,6.07993319509559
"736",20,28,"j","j",1,574,3,"B2","Label","A_Saldie",4,1.38629436111989,6.35262939631957
"737",20,29,"f","f",1,761,3,"A5","Label","A_Saldie",4,1.38629436111989,6.63463335786169
"738",20,30,"j","j",1,1244,3,"B3","Label","A_Saldie",4,1.38629436111989,7.12608727329912
"739",20,31,"j","j",1,1045,3,"B5","Label","A_Saldie",4,1.38629436111989,6.95177216439891
"740",20,32,"j","j",1,674,3,"B6","Label","A_Saldie",4,1.38629436111989,6.51323011091231
"741",20,33,"j","j",1,620,3,"B1","Label","A_Saldie",4,1.38629436111989,6.42971947803914
"742",20,34,"f","f",1,558,3,"A3","Label","A_Saldie",4,1.38629436111989,6.32435896238131
"743",20,35,"f","f",1,506,3,"A2","Label","A_Saldie",4,1.38629436111989,6.22653666928747
"744",20,36,"j","j",1,461,3,"B4","Label","A_Saldie",4,1.38629436111989,6.13339804299665
"745",20,37,"f","f",1,604,4,"A4","Label","A_Saldie",4,1.38629436111989,6.40357419793482
"746",20,38,"f","f",1,695,4,"A6","Label","A_Saldie",4,1.38629436111989,6.54391184556479
"747",20,39,"j","j",1,570,4,"B2","Label","A_Saldie",4,1.38629436111989,6.3456363608286
"748",20,40,"j","j",1,596,4,"B3","Label","A_Saldie",4,1.38629436111989,6.39024066706535
"749",20,41,"f","f",1,551,4,"A1","Label","A_Saldie",4,1.38629436111989,6.31173480915291
"750",20,42,"j","j",1,709,4,"B1","Label","A_Saldie",4,1.38629436111989,6.56385552653213
"751",20,43,"f","f",1,355,4,"A2","Label","A_Saldie",4,1.38629436111989,5.87211778947542
"752",20,44,"f","f",1,631,4,"A5","Label","A_Saldie",4,1.38629436111989,6.44730586254121
"753",20,45,"j","j",1,897,4,"B6","Label","A_Saldie",4,1.38629436111989,6.7990558620588
"754",20,46,"f","f",1,1047,4,"A3","Label","A_Saldie",4,1.38629436111989,6.95368421087054
"755",20,47,"j","j",1,584,4,"B5","Label","A_Saldie",4,1.38629436111989,6.36990098282823
"756",20,48,"j","j",1,632,4,"B4","Label","A_Saldie",4,1.38629436111989,6.44888939414686
"757",20,253,"j","j",1,1409,0,"B3","Label","A_Saldie",4,1.38629436111989,7.25063551189868
"758",20,254,"j","j",1,1667,0,"B1","Label","A_Saldie",4,1.38629436111989,7.41878088275079
"759",20,255,"f","f",1,645,0,"A6","Label","A_Saldie",4,1.38629436111989,6.46925031679577
"760",20,256,"f","f",1,673,0,"A4","Label","A_Saldie",4,1.38629436111989,6.51174532964473
"761",20,257,"f","f",1,877,0,"A2","Label","A_Saldie",4,1.38629436111989,6.77650699237218
"762",20,258,"f","f",1,578,0,"A1","Label","A_Saldie",4,1.38629436111989,6.35957386867238
"763",20,259,"j","j",1,1266,0,"B2","Label","A_Saldie",4,1.38629436111989,7.14361760270412
"764",20,260,"f","f",1,617,0,"A3","Label","A_Saldie",4,1.38629436111989,6.42486902390539
"765",20,261,"j","j",1,761,0,"B4","Label","A_Saldie",4,1.38629436111989,6.63463335786169
"766",20,262,"j","j",1,941,0,"B6","Label","A_Saldie",4,1.38629436111989,6.84694313958538
"767",20,263,"j","j",1,560,0,"B5","Label","A_Saldie",4,1.38629436111989,6.32793678372919
"768",20,264,"f","f",1,744,0,"A5","Label","A_Saldie",4,1.38629436111989,6.61204103483309
"769",17,1,"","",0,NA,1,"A3","Label","A_Gatoo",8,2.07944154167984,NA
"770",17,2,"","",0,NA,1,"B3","Label","A_Gatoo",8,2.07944154167984,NA
"771",17,3,"j","f",0,6459,1,"B6","Label","A_Gatoo",8,2.07944154167984,8.77322978603247
"772",17,4,"j","f",0,2924,1,"B2","Label","A_Gatoo",8,2.07944154167984,7.98070782086967
"773",17,5,"f","j",0,1673,1,"A2","Label","A_Gatoo",8,2.07944154167984,7.42237370098682
"774",17,6,"f","j",0,3886,1,"A5","Label","A_Gatoo",8,2.07944154167984,8.26513562993738
"775",17,7,"f","j",0,2308,1,"A4","Label","A_Gatoo",8,2.07944154167984,7.74413662762799
"776",17,8,"j","f",0,2065,1,"B4","Label","A_Gatoo",8,2.07944154167984,7.63288550539513
"777",17,9,"j","j",1,2274,1,"B1","Label","A_Gatoo",8,2.07944154167984,7.72929567431048
"778",17,10,"f","f",1,1603,1,"A6","Label","A_Gatoo",8,2.07944154167984,7.37963215260955
"779",17,11,"f","j",0,859,1,"A1","Label","A_Gatoo",8,2.07944154167984,6.75576892198425
"780",17,12,"j","f",0,2123,1,"B5","Label","A_Gatoo",8,2.07944154167984,7.66058546170326
"781",17,13,"f","j",0,1734,2,"A3","Label","A_Gatoo",8,2.07944154167984,7.45818615734049
"782",17,14,"f","j",0,1213,2,"A4","Label","A_Gatoo",8,2.07944154167984,7.10085190894405
"783",17,15,"f","j",0,1177,2,"A1","Label","A_Gatoo",8,2.07944154167984,7.07072410726028
"784",17,16,"f","j",0,1405,2,"A5","Label","A_Gatoo",8,2.07944154167984,7.24779258176785
"785",17,17,"j","f",0,1360,2,"B6","Label","A_Gatoo",8,2.07944154167984,7.2152399787301
"786",17,18,"j","f",0,1389,2,"B4","Label","A_Gatoo",8,2.07944154167984,7.23633934275434
"787",17,19,"f","f",1,785,2,"A6","Label","A_Gatoo",8,2.07944154167984,6.66568371778241
"788",17,20,"f","j",0,1497,2,"A2","Label","A_Gatoo",8,2.07944154167984,7.31121838441963
"789",17,21,"j","j",1,1127,2,"B5","Label","A_Gatoo",8,2.07944154167984,7.02731451403978
"790",17,22,"j","j",1,1345,2,"B3","Label","A_Gatoo",8,2.07944154167984,7.20414929203594
"791",17,23,"j","j",1,851,2,"B1","Label","A_Gatoo",8,2.07944154167984,6.74641212857337
"792",17,24,"j","j",1,1133,2,"B2","Label","A_Gatoo",8,2.07944154167984,7.03262426102801
"793",17,25,"j","f",0,1006,3,"B5","Label","A_Gatoo",8,2.07944154167984,6.91373735065968
"794",17,26,"f","j",0,1274,3,"A5","Label","A_Gatoo",8,2.07944154167984,7.14991683613211
"795",17,27,"j","j",1,1172,3,"B3","Label","A_Gatoo",8,2.07944154167984,7.06646697013696
"796",17,28,"j","j",1,819,3,"B2","Label","A_Gatoo",8,2.07944154167984,6.70808408385307
"797",17,29,"j","j",1,2380,3,"B6","Label","A_Gatoo",8,2.07944154167984,7.77485576666552
"798",17,30,"f","j",0,758,3,"A6","Label","A_Gatoo",8,2.07944154167984,6.63068338564237
"799",17,31,"f","j",0,1234,3,"A2","Label","A_Gatoo",8,2.07944154167984,7.11801620446533
"800",17,32,"f","f",1,1175,3,"A1","Label","A_Gatoo",8,2.07944154167984,7.06902342657826
"801",17,33,"j","j",1,844,3,"B1","Label","A_Gatoo",8,2.07944154167984,6.73815249459596
"802",17,34,"f","f",1,1702,3,"A3","Label","A_Gatoo",8,2.07944154167984,7.43955930913332
"803",17,35,"j","j",1,1023,3,"B4","Label","A_Gatoo",8,2.07944154167984,6.93049476595163
"804",17,36,"f","f",1,853,3,"A4","Label","A_Gatoo",8,2.07944154167984,6.74875954749168
"805",17,37,"j","j",1,674,4,"B2","Label","A_Gatoo",8,2.07944154167984,6.51323011091231
"806",17,38,"f","f",1,772,4,"A1","Label","A_Gatoo",8,2.07944154167984,6.64898455002478
"807",17,39,"j","j",1,1501,4,"B5","Label","A_Gatoo",8,2.07944154167984,7.31388683163346
"808",17,40,"j","j",1,748,4,"B1","Label","A_Gatoo",8,2.07944154167984,6.61740297797448
"809",17,41,"j","j",1,532,4,"B3","Label","A_Gatoo",8,2.07944154167984,6.27664348934164
"810",17,42,"f","f",1,690,4,"A2","Label","A_Gatoo",8,2.07944154167984,6.5366915975913
"811",17,43,"f","j",0,981,4,"A5","Label","A_Gatoo",8,2.07944154167984,6.88857245956536
"812",17,44,"f","f",1,1459,4,"A3","Label","A_Gatoo",8,2.07944154167984,7.28550654852279
"813",17,45,"j","f",0,1310,4,"B6","Label","A_Gatoo",8,2.07944154167984,7.1777824161952
"814",17,46,"f","j",0,1943,4,"A6","Label","A_Gatoo",8,2.07944154167984,7.57198844937744
"815",17,47,"j","j",1,788,4,"B4","Label","A_Gatoo",8,2.07944154167984,6.66949808985788
"816",17,48,"f","f",1,742,4,"A4","Label","A_Gatoo",8,2.07944154167984,6.60934924316738
"817",17,49,"f","f",1,1526,5,"A2","Label","A_Gatoo",8,2.07944154167984,7.3304052118444
"818",17,50,"j","f",0,1951,5,"B6","Label","A_Gatoo",8,2.07944154167984,7.57609734062311
"819",17,51,"j","j",1,1566,5,"B4","Label","A_Gatoo",8,2.07944154167984,7.35627987655075
"820",17,52,"f","j",0,960,5,"A5","Label","A_Gatoo",8,2.07944154167984,6.86693328446188
"821",17,53,"f","f",1,2014,5,"A6","Label","A_Gatoo",8,2.07944154167984,7.60787807327851
"822",17,54,"f","j",0,1665,5,"A4","Label","A_Gatoo",8,2.07944154167984,7.41758040241454
"823",17,55,"j","j",1,712,5,"B2","Label","A_Gatoo",8,2.07944154167984,6.56807791141198
"824",17,56,"f","f",1,1452,5,"A3","Label","A_Gatoo",8,2.07944154167984,7.28069719538474
"825",17,57,"j","j",1,1287,5,"B1","Label","A_Gatoo",8,2.07944154167984,7.16006920759613
"826",17,58,"j","j",1,2244,5,"B5","Label","A_Gatoo",8,2.07944154167984,7.71601526664259
"827",17,59,"f","f",1,625,5,"A1","Label","A_Gatoo",8,2.07944154167984,6.4377516497364
"828",17,60,"j","j",1,811,5,"B3","Label","A_Gatoo",8,2.07944154167984,6.69826805411541
"829",17,61,"j","j",1,1333,6,"B6","Label","A_Gatoo",8,2.07944154167984,7.19518732017871
"830",17,62,"f","f",1,550,6,"A3","Label","A_Gatoo",8,2.07944154167984,6.30991827822652
"831",17,63,"j","j",1,645,6,"B2","Label","A_Gatoo",8,2.07944154167984,6.46925031679577
"832",17,64,"j","j",1,760,6,"B4","Label","A_Gatoo",8,2.07944154167984,6.63331843328038
"833",17,65,"f","f",1,605,6,"A1","Label","A_Gatoo",8,2.07944154167984,6.40522845803084
"834",17,66,"j","f",0,978,6,"B5","Label","A_Gatoo",8,2.07944154167984,6.88550967003482
"835",17,67,"f","f",1,672,6,"A2","Label","A_Gatoo",8,2.07944154167984,6.51025834052315
"836",17,68,"f","j",0,1978,6,"A5","Label","A_Gatoo",8,2.07944154167984,7.58984151218266
"837",17,69,"f","f",1,850,6,"A4","Label","A_Gatoo",8,2.07944154167984,6.74523634948436
"838",17,70,"j","j",1,738,6,"B3","Label","A_Gatoo",8,2.07944154167984,6.60394382460047
"839",17,71,"j","j",1,616,6,"B1","Label","A_Gatoo",8,2.07944154167984,6.42324696353352
"840",17,72,"f","j",0,2356,6,"A6","Label","A_Gatoo",8,2.07944154167984,7.76472054477148
"841",17,73,"f","f",1,1410,7,"A5","Label","A_Gatoo",8,2.07944154167984,7.25134498337221
"842",17,74,"f","j",0,1103,7,"A1","Label","A_Gatoo",8,2.07944154167984,7.0057890192535
"843",17,75,"f","f",1,941,7,"A2","Label","A_Gatoo",8,2.07944154167984,6.84694313958538
"844",17,76,"f","f",1,2336,7,"A3","Label","A_Gatoo",8,2.07944154167984,7.75619534394812
"845",17,77,"j","j",1,677,7,"B4","Label","A_Gatoo",8,2.07944154167984,6.51767127291227
"846",17,78,"f","f",1,1006,7,"A6","Label","A_Gatoo",8,2.07944154167984,6.91373735065968
"847",17,79,"j","j",1,1243,7,"B3","Label","A_Gatoo",8,2.07944154167984,7.12528309151071
"848",17,80,"j","j",1,1366,7,"B1","Label","A_Gatoo",8,2.07944154167984,7.21964204013074
"849",17,81,"j","f",0,1509,7,"B5","Label","A_Gatoo",8,2.07944154167984,7.31920245876785
"850",17,82,"j","j",1,1162,7,"B6","Label","A_Gatoo",8,2.07944154167984,7.05789793741186
"851",17,83,"f","f",1,1051,7,"A4","Label","A_Gatoo",8,2.07944154167984,6.95749737087695
"852",17,84,"j","j",1,661,7,"B2","Label","A_Gatoo",8,2.07944154167984,6.49375383985169
"853",17,85,"j","j",1,623,8,"B2","Label","A_Gatoo",8,2.07944154167984,6.43454651878745
"854",17,86,"f","f",1,913,8,"A2","Label","A_Gatoo",8,2.07944154167984,6.81673588059497
"855",17,87,"j","j",1,5224,8,"B5","Label","A_Gatoo",8,2.07944154167984,8.56101867095627
"856",17,88,"f","f",1,786,8,"A4","Label","A_Gatoo",8,2.07944154167984,6.66695679242921
"857",17,89,"j","j",1,652,8,"B4","Label","A_Gatoo",8,2.07944154167984,6.48004456192665
"858",17,90,"f","f",1,1822,8,"A1","Label","A_Gatoo",8,2.07944154167984,7.5076900778199
"859",17,91,"f","f",1,932,8,"A3","Label","A_Gatoo",8,2.07944154167984,6.83733281468559
"860",17,92,"f","f",1,1231,8,"A6","Label","A_Gatoo",8,2.07944154167984,7.11558212618445
"861",17,93,"j","j",1,1525,8,"B6","Label","A_Gatoo",8,2.07944154167984,7.32974968904151
"862",17,94,"j","j",1,700,8,"B3","Label","A_Gatoo",8,2.07944154167984,6.5510803350434
"863",17,95,"j","j",1,1089,8,"B1","Label","A_Gatoo",8,2.07944154167984,6.99301512293296
"864",17,96,"f","f",1,1759,8,"A5","Label","A_Gatoo",8,2.07944154167984,7.47250074473756
"865",17,253,"f","f",1,3558,0,"A5","Label","A_Gatoo",8,2.07944154167984,8.17695386822578
"866",17,254,"f","f",1,936,0,"A3","Label","A_Gatoo",8,2.07944154167984,6.84161547647759
"867",17,255,"j","j",1,557,0,"B3","Label","A_Gatoo",8,2.07944154167984,6.32256523992728
"868",17,256,"f","f",1,4224,0,"A1","Label","A_Gatoo",8,2.07944154167984,8.3485378253861
"869",17,257,"j","j",1,841,0,"B1","Label","A_Gatoo",8,2.07944154167984,6.73459165997295
"870",17,258,"j","j",1,3290,0,"B6","Label","A_Gatoo",8,2.07944154167984,8.09864284375942
"871",17,259,"f","f",1,2275,0,"A4","Label","A_Gatoo",8,2.07944154167984,7.72973533138505
"872",17,260,"f","j",0,6131,0,"A6","Label","A_Gatoo",8,2.07944154167984,8.72111314776269
"873",17,261,"j","j",1,724,0,"B4","Label","A_Gatoo",8,2.07944154167984,6.58479139238572
"874",17,262,"j","f",0,847,0,"B5","Label","A_Gatoo",8,2.07944154167984,6.74170069465205
"875",17,263,"j","j",1,646,0,"B2","Label","A_Gatoo",8,2.07944154167984,6.4707995037826
"876",17,264,"f","f",1,716,0,"A2","Label","A_Gatoo",8,2.07944154167984,6.57368016696065
"877",2,1,"j","f",0,6659,1,"B2","NoLabel","NoName",5,1.6094379124341,8.80372460211062
"878",2,2,"j","j",1,8468,1,"B6","NoLabel","NoName",5,1.6094379124341,9.04404963225476
"879",2,3,"j","f",0,1385,1,"B3","NoLabel","NoName",5,1.6094379124341,7.23345541862144
"880",2,4,"f","j",0,1762,1,"A2","NoLabel","NoName",5,1.6094379124341,7.47420480649612
"881",2,5,"j","j",1,1395,1,"B4","NoLabel","NoName",5,1.6094379124341,7.24064969425547
"882",2,6,"j","j",1,1865,1,"B5","NoLabel","NoName",5,1.6094379124341,7.53101633207792
"883",2,7,"j","f",0,3178,1,"B1","NoLabel","NoName",5,1.6094379124341,8.06400734709666
"884",2,8,"f","f",1,3561,1,"A1","NoLabel","NoName",5,1.6094379124341,8.17779668327778
"885",2,9,"f","j",0,2820,1,"A5","NoLabel","NoName",5,1.6094379124341,7.94449216393216
"886",2,10,"f","j",0,2869,1,"A6","NoLabel","NoName",5,1.6094379124341,7.96171881598136
"887",2,11,"f","f",1,2041,1,"A4","NoLabel","NoName",5,1.6094379124341,7.62119516280984
"888",2,12,"f","f",1,3483,1,"A3","NoLabel","NoName",5,1.6094379124341,8.155649270366
"889",2,13,"j","j",1,1499,2,"B1","NoLabel","NoName",5,1.6094379124341,7.3125534981026
"890",2,14,"f","j",0,1158,2,"A1","NoLabel","NoName",5,1.6094379124341,7.05444965813294
"891",2,15,"f","j",0,1930,2,"A4","NoLabel","NoName",5,1.6094379124341,7.56527528189893
"892",2,16,"j","f",0,2776,2,"B5","NoLabel","NoName",5,1.6094379124341,7.9287663216267
"893",2,17,"j","j",1,1040,2,"B2","NoLabel","NoName",5,1.6094379124341,6.94697599213542
"894",2,18,"f","f",1,3205,2,"A6","NoLabel","NoName",5,1.6094379124341,8.07246736935477
"895",2,19,"f","f",1,2037,2,"A5","NoLabel","NoName",5,1.6094379124341,7.61923341622681
"896",2,20,"f","j",0,2483,2,"A2","NoLabel","NoName",5,1.6094379124341,7.81722278550817
"897",2,21,"j","j",1,992,2,"B3","NoLabel","NoName",5,1.6094379124341,6.89972310728487
"898",2,22,"f","f",1,2846,2,"A3","NoLabel","NoName",5,1.6094379124341,7.9536697786498
"899",2,23,"j","f",0,2556,2,"B6","NoLabel","NoName",5,1.6094379124341,7.84619881549743
"900",2,24,"j","j",1,1003,2,"B4","NoLabel","NoName",5,1.6094379124341,6.91075078796194
"901",2,25,"j","j",1,1208,3,"B6","NoLabel","NoName",5,1.6094379124341,7.09672137849476
"902",2,26,"f","f",1,4579,3,"A2","NoLabel","NoName",5,1.6094379124341,8.4292359126571
"903",2,27,"j","j",1,774,3,"B3","NoLabel","NoName",5,1.6094379124341,6.65157187358973
"904",2,28,"f","f",1,2971,3,"A3","NoLabel","NoName",5,1.6094379124341,7.99665387546261
"905",2,29,"j","f",0,1589,3,"B2","NoLabel","NoName",5,1.6094379124341,7.37086016653672
"906",2,30,"f","f",1,1839,3,"A5","NoLabel","NoName",5,1.6094379124341,7.51697722460432
"907",2,31,"j","j",1,1798,3,"B5","NoLabel","NoName",5,1.6094379124341,7.49443021503157
"908",2,32,"j","j",1,955,3,"B4","NoLabel","NoName",5,1.6094379124341,6.86171134048073
"909",2,33,"f","j",0,1265,3,"A1","NoLabel","NoName",5,1.6094379124341,7.14282740116162
"910",2,34,"f","f",1,1000,3,"A6","NoLabel","NoName",5,1.6094379124341,6.90775527898214
"911",2,35,"f","f",1,1167,3,"A4","NoLabel","NoName",5,1.6094379124341,7.06219163228656
"912",2,36,"j","j",1,1211,3,"B1","NoLabel","NoName",5,1.6094379124341,7.09920174355309
"913",2,37,"j","j",1,1023,4,"B4","NoLabel","NoName",5,1.6094379124341,6.93049476595163
"914",2,38,"j","j",1,1058,4,"B1","NoLabel","NoName",5,1.6094379124341,6.96413561241824
"915",2,39,"j","j",1,1252,4,"B6","NoLabel","NoName",5,1.6094379124341,7.13249755166004
"916",2,40,"f","j",0,1398,4,"A1","NoLabel","NoName",5,1.6094379124341,7.24279792279376
"917",2,41,"f","f",1,1176,4,"A5","NoLabel","NoName",5,1.6094379124341,7.06987412845857
"918",2,42,"j","j",1,1778,4,"B2","NoLabel","NoName",5,1.6094379124341,7.48324441607385
"919",2,43,"j","j",1,2218,4,"B5","NoLabel","NoName",5,1.6094379124341,7.70436116791031
"920",2,44,"f","f",1,1259,4,"A3","NoLabel","NoName",5,1.6094379124341,7.13807303404435
"921",2,45,"f","f",1,1399,4,"A4","NoLabel","NoName",5,1.6094379124341,7.24351297466548
"922",2,46,"f","j",0,3210,4,"A2","NoLabel","NoName",5,1.6094379124341,8.07402621612406
"923",2,47,"j","j",1,816,4,"B3","NoLabel","NoName",5,1.6094379124341,6.70441435496411
"924",2,48,"f","f",1,1392,4,"A6","NoLabel","NoName",5,1.6094379124341,7.23849684089437
"925",2,49,"j","j",1,1391,5,"B6","NoLabel","NoName",5,1.6094379124341,7.23777819192344
"926",2,50,"j","j",1,785,5,"B4","NoLabel","NoName",5,1.6094379124341,6.66568371778241
"927",2,51,"f","f",1,1087,5,"A3","NoLabel","NoName",5,1.6094379124341,6.99117688712121
"928",2,52,"f","f",1,925,5,"A5","NoLabel","NoName",5,1.6094379124341,6.82979373751242
"929",2,53,"f","f",1,1674,5,"A2","NoLabel","NoName",5,1.6094379124341,7.42297125104942
"930",2,54,"j","j",1,3898,5,"B1","NoLabel","NoName",5,1.6094379124341,8.26821888006751
"931",2,55,"j","j",1,1088,5,"B5","NoLabel","NoName",5,1.6094379124341,6.99209642741589
"932",2,56,"j","j",1,849,5,"B3","NoLabel","NoName",5,1.6094379124341,6.74405918631135
"933",2,57,"f","f",1,1259,5,"A4","NoLabel","NoName",5,1.6094379124341,7.13807303404435
"934",2,58,"j","j",1,1993,5,"B2","NoLabel","NoName",5,1.6094379124341,7.59739632021279
"935",2,59,"f","f",1,1257,5,"A1","NoLabel","NoName",5,1.6094379124341,7.13648320859025
"936",2,60,"f","f",1,1333,5,"A6","NoLabel","NoName",5,1.6094379124341,7.19518732017871
"937",2,253,"f","f",1,806,0,"A4","NoLabel","NoName",5,1.6094379124341,6.69208374250663
"938",2,254,"j","j",1,959,0,"B6","NoLabel","NoName",5,1.6094379124341,6.86589107488344
"939",2,255,"f","f",1,1005,0,"A1","NoLabel","NoName",5,1.6094379124341,6.91274282049318
"940",2,256,"f","f",1,732,0,"A5","NoLabel","NoName",5,1.6094379124341,6.59578051396131
"941",2,257,"j","j",1,584,0,"B4","NoLabel","NoName",5,1.6094379124341,6.36990098282823
"942",2,258,"f","f",1,622,0,"A6","NoLabel","NoName",5,1.6094379124341,6.43294009273918
"943",2,259,"j","j",1,744,0,"B3","NoLabel","NoName",5,1.6094379124341,6.61204103483309
"944",2,260,"j","j",1,2662,0,"B2","NoLabel","NoName",5,1.6094379124341,7.88683299895506
"945",2,261,"j","j",1,1607,0,"B1","NoLabel","NoName",5,1.6094379124341,7.38212436573751
"946",2,262,"f","f",1,826,0,"A3","NoLabel","NoName",5,1.6094379124341,6.71659477352098
"947",2,263,"j","j",1,716,0,"B5","NoLabel","NoName",5,1.6094379124341,6.57368016696065
"948",2,264,"f","f",1,2158,0,"A2","NoLabel","NoName",5,1.6094379124341,7.67693714581808
"949",21,1,"f","f",1,1619,1,"A2","Label","A_Gatoo",4,1.38629436111989,7.38956395367764
"950",21,2,"j","j",1,1854,1,"B2","Label","A_Gatoo",4,1.38629436111989,7.5251007461258
"951",21,3,"f","f",1,1429,1,"A4","Label","A_Gatoo",4,1.38629436111989,7.26473017792987
"952",21,4,"j","j",1,1036,1,"B4","Label","A_Gatoo",4,1.38629436111989,6.94312242281943
"953",21,5,"f","f",1,3136,1,"A6","Label","A_Gatoo",4,1.38629436111989,8.0507033814703
"954",21,6,"f","f",1,904,1,"A3","Label","A_Gatoo",4,1.38629436111989,6.80682936039218
"955",21,7,"f","f",1,695,1,"A1","Label","A_Gatoo",4,1.38629436111989,6.54391184556479
"956",21,8,"j","j",1,718,1,"B3","Label","A_Gatoo",4,1.38629436111989,6.57646956904822
"957",21,9,"j","j",1,533,1,"B1","Label","A_Gatoo",4,1.38629436111989,6.27852142416584
"958",21,10,"j","f",0,910,1,"B5","Label","A_Gatoo",4,1.38629436111989,6.8134445995109
"959",21,11,"f","f",1,1147,1,"A5","Label","A_Gatoo",4,1.38629436111989,7.04490511712937
"960",21,12,"j","j",1,3229,1,"B6","Label","A_Gatoo",4,1.38629436111989,8.07992777075827
"961",21,13,"f","f",1,1149,2,"A1","Label","A_Gatoo",4,1.38629436111989,7.04664727784876
"962",21,14,"j","j",1,1425,2,"B3","Label","A_Gatoo",4,1.38629436111989,7.26192709270275
"963",21,15,"f","f",1,986,2,"A4","Label","A_Gatoo",4,1.38629436111989,6.89365635460264
"964",21,16,"j","j",1,995,2,"B1","Label","A_Gatoo",4,1.38629436111989,6.90274273715859
"965",21,17,"j","j",1,1208,2,"B2","Label","A_Gatoo",4,1.38629436111989,7.09672137849476
"966",21,18,"j","j",1,3081,2,"B5","Label","A_Gatoo",4,1.38629436111989,8.03300949859667
"967",21,19,"j","j",1,794,2,"B4","Label","A_Gatoo",4,1.38629436111989,6.67708346124714
"968",21,20,"f","f",1,2602,2,"A5","Label","A_Gatoo",4,1.38629436111989,7.86403565907245
"969",21,21,"f","f",1,2102,2,"A3","Label","A_Gatoo",4,1.38629436111989,7.6506445514369
"970",21,22,"f","f",1,1077,2,"A6","Label","A_Gatoo",4,1.38629436111989,6.98193467715639
"971",21,23,"j","f",0,746,2,"B6","Label","A_Gatoo",4,1.38629436111989,6.61472560020376
"972",21,24,"f","f",1,1681,2,"A2","Label","A_Gatoo",4,1.38629436111989,7.42714413340862
"973",21,25,"f","j",0,1457,3,"A6","Label","A_Gatoo",4,1.38629436111989,7.2841348061952
"974",21,26,"j","j",1,692,3,"B2","Label","A_Gatoo",4,1.38629436111989,6.53958595561767
"975",21,27,"j","j",1,9751,3,"B5","Label","A_Gatoo",4,1.38629436111989,9.18512512283512
"976",21,28,"j","j",1,1165,3,"B4","Label","A_Gatoo",4,1.38629436111989,7.0604763659998
"977",21,29,"f","f",1,1348,3,"A3","Label","A_Gatoo",4,1.38629436111989,7.20637729147225
"978",21,30,"j","j",1,1161,3,"B6","Label","A_Gatoo",4,1.38629436111989,7.05703698169789
"979",21,31,"j","j",1,2037,3,"B3","Label","A_Gatoo",4,1.38629436111989,7.61923341622681
"980",21,32,"f","f",1,1011,3,"A2","Label","A_Gatoo",4,1.38629436111989,6.91869521902047
"981",21,33,"f","f",1,1322,3,"A1","Label","A_Gatoo",4,1.38629436111989,7.18690102041163
"982",21,34,"j","j",1,1208,3,"B1","Label","A_Gatoo",4,1.38629436111989,7.09672137849476
"983",21,35,"f","f",1,1000,3,"A4","Label","A_Gatoo",4,1.38629436111989,6.90775527898214
"984",21,36,"f","j",0,2674,3,"A5","Label","A_Gatoo",4,1.38629436111989,7.89133075766189
"985",21,37,"f","f",1,1322,4,"A6","Label","A_Gatoo",4,1.38629436111989,7.18690102041163
"986",21,38,"f","f",1,3283,4,"A5","Label","A_Gatoo",4,1.38629436111989,8.09651291750159
"987",21,39,"j","j",1,879,4,"B4","Label","A_Gatoo",4,1.38629436111989,6.77878489768518
"988",21,40,"f","f",1,840,4,"A2","Label","A_Gatoo",4,1.38629436111989,6.73340189183736
"989",21,41,"f","f",1,715,4,"A3","Label","A_Gatoo",4,1.38629436111989,6.57228254269401
"990",21,42,"j","j",1,5838,4,"B1","Label","A_Gatoo",4,1.38629436111989,8.67214355141406
"991",21,43,"j","j",1,764,4,"B2","Label","A_Gatoo",4,1.38629436111989,6.63856778916652
"992",21,44,"j","j",1,1706,4,"B5","Label","A_Gatoo",4,1.38629436111989,7.44190672805162
"993",21,45,"j","j",1,1525,4,"B6","Label","A_Gatoo",4,1.38629436111989,7.32974968904151
"994",21,46,"f","f",1,2792,4,"A1","Label","A_Gatoo",4,1.38629436111989,7.93451346388226
"995",21,47,"j","j",1,845,4,"B3","Label","A_Gatoo",4,1.38629436111989,6.73933662735717
"996",21,48,"f","f",1,780,4,"A4","Label","A_Gatoo",4,1.38629436111989,6.65929391968364
"997",21,253,"f","f",1,3831,0,"A1","Label","A_Gatoo",4,1.38629436111989,8.25088114470065
"998",21,254,"f","f",1,835,0,"A2","Label","A_Gatoo",4,1.38629436111989,6.72743172485086
"999",21,255,"j","j",1,1160,0,"B2","Label","A_Gatoo",4,1.38629436111989,7.05617528410041
"1000",21,256,"","",0,NA,0,"A5","Label","A_Gatoo",4,1.38629436111989,NA
"1001",21,257,"j","j",1,976,0,"B3","Label","A_Gatoo",4,1.38629436111989,6.88346258641309
"1002",21,258,"j","j",1,3142,0,"B6","Label","A_Gatoo",4,1.38629436111989,8.05261481881557
"1003",21,259,"f","f",1,1022,0,"A4","Label","A_Gatoo",4,1.38629436111989,6.92951677076365
"1004",21,260,"j","j",1,737,0,"B1","Label","A_Gatoo",4,1.38629436111989,6.60258789218934
"1005",21,261,"f","f",1,2169,0,"A3","Label","A_Gatoo",4,1.38629436111989,7.68202151082687
"1006",21,262,"j","j",1,3952,0,"B5","Label","A_Gatoo",4,1.38629436111989,8.28197705886776
"1007",21,263,"f","f",1,1090,0,"A6","Label","A_Gatoo",4,1.38629436111989,6.99393297522319
"1008",21,264,"j","j",1,4546,0,"B4","Label","A_Gatoo",4,1.38629436111989,8.42200300441249
"1009",22,1,"j","f",0,1450,1,"B4","NoLabel","NoName",7,1.94591014905531,7.27931883541462
"1010",22,2,"f","j",0,1013,1,"A2","NoLabel","NoName",7,1.94591014905531,6.92067150424868
"1011",22,3,"j","j",1,1473,1,"B6","NoLabel","NoName",7,1.94591014905531,7.29505641646263
"1012",22,4,"f","f",1,1783,1,"A6","NoLabel","NoName",7,1.94591014905531,7.48605261786314
"1013",22,5,"j","j",1,1227,1,"B2","NoLabel","NoName",7,1.94591014905531,7.11232744471091
"1014",22,6,"f","f",1,984,1,"A3","NoLabel","NoName",7,1.94591014905531,6.89162589705225
"1015",22,7,"f","f",1,784,1,"A5","NoLabel","NoName",7,1.94591014905531,6.66440902035041
"1016",22,8,"j","j",1,1048,1,"B3","NoLabel","NoName",7,1.94591014905531,6.95463886488099
"1017",22,9,"j","j",1,880,1,"B1","NoLabel","NoName",7,1.94591014905531,6.77992190747225
"1018",22,10,"f","j",0,605,1,"A1","NoLabel","NoName",7,1.94591014905531,6.40522845803084
"1019",22,11,"j","j",1,817,1,"B5","NoLabel","NoName",7,1.94591014905531,6.70563909486
"1020",22,12,"f","f",1,624,1,"A4","NoLabel","NoName",7,1.94591014905531,6.43615036836943
"1021",22,13,"j","j",1,995,2,"B3","NoLabel","NoName",7,1.94591014905531,6.90274273715859
"1022",22,14,"j","j",1,586,2,"B4","NoLabel","NoName",7,1.94591014905531,6.37331978957701
"1023",22,15,"f","f",1,677,2,"A4","NoLabel","NoName",7,1.94591014905531,6.51767127291227
"1024",22,16,"j","j",1,663,2,"B2","NoLabel","NoName",7,1.94591014905531,6.49677499018586
"1025",22,17,"f","f",1,587,2,"A6","NoLabel","NoName",7,1.94591014905531,6.3750248198281
"1026",22,18,"j","j",1,738,2,"B1","NoLabel","NoName",7,1.94591014905531,6.60394382460047
"1027",22,19,"j","j",1,608,2,"B6","NoLabel","NoName",7,1.94591014905531,6.41017488196617
"1028",22,20,"f","j",0,842,2,"A1","NoLabel","NoName",7,1.94591014905531,6.73578001424233
"1029",22,21,"j","j",1,809,2,"B5","NoLabel","NoName",7,1.94591014905531,6.69579891705849
"1030",22,22,"f","f",1,941,2,"A3","NoLabel","NoName",7,1.94591014905531,6.84694313958538
"1031",22,23,"f","j",0,907,2,"A2","NoLabel","NoName",7,1.94591014905531,6.81014245011514
"1032",22,24,"f","f",1,1077,2,"A5","NoLabel","NoName",7,1.94591014905531,6.98193467715639
"1033",22,25,"f","f",1,1381,3,"A2","NoLabel","NoName",7,1.94591014905531,7.23056315340929
"1034",22,26,"j","j",1,1341,3,"B2","NoLabel","NoName",7,1.94591014905531,7.20117088328168
"1035",22,27,"f","f",1,784,3,"A6","NoLabel","NoName",7,1.94591014905531,6.66440902035041
"1036",22,28,"f","f",1,950,3,"A3","NoLabel","NoName",7,1.94591014905531,6.85646198459459
"1037",22,29,"j","j",1,579,3,"B6","NoLabel","NoName",7,1.94591014905531,6.361302477573
"1038",22,30,"f","f",1,785,3,"A4","NoLabel","NoName",7,1.94591014905531,6.66568371778241
"1039",22,31,"f","f",1,874,3,"A5","NoLabel","NoName",7,1.94591014905531,6.77308037565554
"1040",22,32,"j","j",1,730,3,"B5","NoLabel","NoName",7,1.94591014905531,6.59304453414244
"1041",22,33,"j","f",0,3139,3,"B1","NoLabel","NoName",7,1.94591014905531,8.05165955684195
"1042",22,34,"j","j",1,1231,3,"B3","NoLabel","NoName",7,1.94591014905531,7.11558212618445
"1043",22,35,"f","f",1,1616,3,"A1","NoLabel","NoName",7,1.94591014905531,7.38770923908104
"1044",22,36,"j","j",1,1038,3,"B4","NoLabel","NoName",7,1.94591014905531,6.94505106372583
"1045",22,37,"j","f",0,2173,4,"B2","NoLabel","NoName",7,1.94591014905531,7.68386398025643
"1046",22,38,"f","f",1,1706,4,"A2","NoLabel","NoName",7,1.94591014905531,7.44190672805162
"1047",22,39,"f","f",1,1019,4,"A1","NoLabel","NoName",7,1.94591014905531,6.92657703322272
"1048",22,40,"f","j",0,862,4,"A5","NoLabel","NoName",7,1.94591014905531,6.75925527066369
"1049",22,41,"j","j",1,1159,4,"B3","NoLabel","NoName",7,1.94591014905531,7.05531284333975
"1050",22,42,"f","f",1,1320,4,"A4","NoLabel","NoName",7,1.94591014905531,7.18538701558042
"1051",22,43,"j","j",1,2315,4,"B1","NoLabel","NoName",7,1.94591014905531,7.74716496652033
"1052",22,44,"f","f",1,1027,4,"A3","NoLabel","NoName",7,1.94591014905531,6.93439720992856
"1053",22,45,"f","f",1,1101,4,"A6","NoLabel","NoName",7,1.94591014905531,7.00397413672268
"1054",22,46,"j","j",1,845,4,"B6","NoLabel","NoName",7,1.94591014905531,6.73933662735717
"1055",22,47,"j","j",1,658,4,"B4","NoLabel","NoName",7,1.94591014905531,6.48920493132532
"1056",22,48,"j","j",1,787,4,"B5","NoLabel","NoName",7,1.94591014905531,6.6682282484174
"1057",22,49,"f","f",1,974,5,"A6","NoLabel","NoName",7,1.94591014905531,6.88141130364254
"1058",22,50,"j","j",1,675,5,"B5","NoLabel","NoName",7,1.94591014905531,6.51471269087253
"1059",22,51,"f","f",1,2018,5,"A2","NoLabel","NoName",7,1.94591014905531,7.60986220091355
"1060",22,52,"j","j",1,1448,5,"B4","NoLabel","NoName",7,1.94591014905531,7.27793857294566
"1061",22,53,"f","f",1,792,5,"A3","NoLabel","NoName",7,1.94591014905531,6.67456139181443
"1062",22,54,"f","f",1,941,5,"A1","NoLabel","NoName",7,1.94591014905531,6.84694313958538
"1063",22,55,"j","j",1,1253,5,"B2","NoLabel","NoName",7,1.94591014905531,7.13329595489607
"1064",22,56,"j","j",1,1006,5,"B1","NoLabel","NoName",7,1.94591014905531,6.91373735065968
"1065",22,57,"f","f",1,866,5,"A4","NoLabel","NoName",7,1.94591014905531,6.76388490856244
"1066",22,58,"f","j",0,1515,5,"A5","NoLabel","NoName",7,1.94591014905531,7.32317071794347
"1067",22,59,"j","j",1,1814,5,"B6","NoLabel","NoName",7,1.94591014905531,7.50328963067508
"1068",22,60,"j","j",1,1148,5,"B3","NoLabel","NoName",7,1.94591014905531,7.04577657687951
"1069",22,61,"j","j",1,1725,6,"B2","NoLabel","NoName",7,1.94591014905531,7.45298232946546
"1070",22,62,"j","j",1,1874,6,"B5","NoLabel","NoName",7,1.94591014905531,7.53583046279837
"1071",22,63,"j","j",1,3591,6,"B1","NoLabel","NoName",7,1.94591014905531,8.18618599422608
"1072",22,64,"j","f",0,2814,6,"B6","NoLabel","NoName",7,1.94591014905531,7.94236223767433
"1073",22,65,"f","f",1,1492,6,"A4","NoLabel","NoName",7,1.94591014905531,7.30787278076371
"1074",22,66,"j","j",1,1753,6,"B3","NoLabel","NoName",7,1.94591014905531,7.46908388492123
"1075",22,67,"f","f",1,1543,6,"A1","NoLabel","NoName",7,1.94591014905531,7.34148385236316
"1076",22,68,"f","f",1,951,6,"A2","NoLabel","NoName",7,1.94591014905531,6.85751406254539
"1077",22,69,"j","j",1,2345,6,"B4","NoLabel","NoName",7,1.94591014905531,7.76004068088038
"1078",22,70,"f","f",1,2505,6,"A6","NoLabel","NoName",7,1.94591014905531,7.82604401351897
"1079",22,71,"f","f",1,1011,6,"A3","NoLabel","NoName",7,1.94591014905531,6.91869521902047
"1080",22,72,"f","j",0,2168,6,"A5","NoLabel","NoName",7,1.94591014905531,7.68156036255954
"1081",22,73,"j","j",1,2150,7,"B5","NoLabel","NoName",7,1.94591014905531,7.67322312112171
"1082",22,74,"j","j",1,1859,7,"B1","NoLabel","NoName",7,1.94591014905531,7.52779398772144
"1083",22,75,"f","f",1,1285,7,"A2","NoLabel","NoName",7,1.94591014905531,7.15851399732932
"1084",22,76,"f","f",1,1164,7,"A3","NoLabel","NoName",7,1.94591014905531,7.05961762829138
"1085",22,77,"j","j",1,1616,7,"B3","NoLabel","NoName",7,1.94591014905531,7.38770923908104
"1086",22,78,"j","j",1,2611,7,"B4","NoLabel","NoName",7,1.94591014905531,7.86748856869913
"1087",22,79,"j","j",1,1116,7,"B2","NoLabel","NoName",7,1.94591014905531,7.01750614294126
"1088",22,80,"f","f",1,887,7,"A1","NoLabel","NoName",7,1.94591014905531,6.78784498230958
"1089",22,81,"j","j",1,1348,7,"B6","NoLabel","NoName",7,1.94591014905531,7.20637729147225
"1090",22,82,"f","f",1,1489,7,"A5","NoLabel","NoName",7,1.94591014905531,7.30586003268401
"1091",22,83,"f","f",1,942,7,"A4","NoLabel","NoName",7,1.94591014905531,6.84800527457636
"1092",22,84,"f","f",1,2491,7,"A6","NoLabel","NoName",7,1.94591014905531,7.82043951526218
"1093",22,253,"f","f",1,1005,0,"A1","NoLabel","NoName",7,1.94591014905531,6.91274282049318
"1094",22,254,"j","j",1,1144,0,"B4","NoLabel","NoName",7,1.94591014905531,7.04228617193974
"1095",22,255,"f","f",1,1080,0,"A5","NoLabel","NoName",7,1.94591014905531,6.98471632011827
"1096",22,256,"j","j",1,1020,0,"B5","NoLabel","NoName",7,1.94591014905531,6.92755790627832
"1097",22,257,"j","j",1,1105,0,"B3","NoLabel","NoName",7,1.94591014905531,7.00760061395185
"1098",22,258,"f","f",1,790,0,"A4","NoLabel","NoName",7,1.94591014905531,6.67203294546107
"1099",22,259,"f","f",1,1236,0,"A3","NoLabel","NoName",7,1.94591014905531,7.11963563801764
"1100",22,260,"f","f",1,916,0,"A6","NoLabel","NoName",7,1.94591014905531,6.82001636467413
"1101",22,261,"j","j",1,1233,0,"B1","NoLabel","NoName",7,1.94591014905531,7.11720550316434
"1102",22,262,"f","f",1,799,0,"A2","NoLabel","NoName",7,1.94591014905531,6.68336094576627
"1103",22,263,"j","j",1,787,0,"B2","NoLabel","NoName",7,1.94591014905531,6.6682282484174
"1104",22,264,"j","j",1,830,0,"B6","NoLabel","NoName",7,1.94591014905531,6.72142570079064
"1105",23,1,"j","f",0,1815,1,"B3","NoLabel","NoName",5,1.6094379124341,7.50384074669895
"1106",23,2,"f","j",0,2229,1,"A5","NoLabel","NoName",5,1.6094379124341,7.70930833338587
"1107",23,3,"f","j",0,2194,1,"A1","NoLabel","NoName",5,1.6094379124341,7.69348164083518
"1108",23,4,"j","f",0,3076,1,"B5","NoLabel","NoName",5,1.6094379124341,8.03138533062553
"1109",23,5,"j","f",0,1847,1,"B2","NoLabel","NoName",5,1.6094379124341,7.52131798019924
"1110",23,6,"j","f",0,1283,1,"B6","NoLabel","NoName",5,1.6094379124341,7.15695636461564
"1111",23,7,"j","j",1,1940,1,"B4","NoLabel","NoName",5,1.6094379124341,7.57044325205737
"1112",23,8,"f","j",0,1061,1,"A3","NoLabel","NoName",5,1.6094379124341,6.96696713861398
"1113",23,9,"f","f",1,1160,1,"A4","NoLabel","NoName",5,1.6094379124341,7.05617528410041
"1114",23,10,"f","f",1,971,1,"A6","NoLabel","NoName",5,1.6094379124341,6.87832646829133
"1115",23,11,"f","j",0,1110,1,"A2","NoLabel","NoName",5,1.6094379124341,7.01211529430638
"1116",23,12,"j","j",1,2952,1,"B1","NoLabel","NoName",5,1.6094379124341,7.99023818572036
"1117",23,13,"j","f",0,1891,2,"B5","NoLabel","NoName",5,1.6094379124341,7.54486106865846
"1118",23,14,"f","j",0,1254,2,"A3","NoLabel","NoName",5,1.6094379124341,7.13409372119287
"1119",23,15,"f","j",0,1944,2,"A4","NoLabel","NoName",5,1.6094379124341,7.57250298502038
"1120",23,16,"j","f",0,740,2,"B3","NoLabel","NoName",5,1.6094379124341,6.60665018619822
"1121",23,17,"f","j",0,1108,2,"A2","NoLabel","NoName",5,1.6094379124341,7.01031186730723
"1122",23,18,"j","j",1,1327,2,"B6","NoLabel","NoName",5,1.6094379124341,7.19067603433221
"1123",23,19,"f","f",1,2467,2,"A1","NoLabel","NoName",5,1.6094379124341,7.81075811652936
"1124",23,20,"f","j",0,1148,2,"A6","NoLabel","NoName",5,1.6094379124341,7.04577657687951
"1125",23,21,"f","f",1,1340,2,"A5","NoLabel","NoName",5,1.6094379124341,7.20042489294496
"1126",23,22,"j","j",1,929,2,"B4","NoLabel","NoName",5,1.6094379124341,6.83410873881384
"1127",23,23,"j","j",1,1140,2,"B2","NoLabel","NoName",5,1.6094379124341,7.03878354138854
"1128",23,24,"j","j",1,694,2,"B1","NoLabel","NoName",5,1.6094379124341,6.5424719605068
"1129",23,25,"j","j",1,633,3,"B4","NoLabel","NoName",5,1.6094379124341,6.45047042214418
"1130",23,26,"j","j",1,501,3,"B2","NoLabel","NoName",5,1.6094379124341,6.21660610108486
"1131",23,27,"f","f",1,710,3,"A3","NoLabel","NoName",5,1.6094379124341,6.56526497003536
"1132",23,28,"f","j",0,1325,3,"A5","NoLabel","NoName",5,1.6094379124341,7.18916773842032
"1133",23,29,"j","j",1,849,3,"B3","NoLabel","NoName",5,1.6094379124341,6.74405918631135
"1134",23,30,"f","f",1,852,3,"A1","NoLabel","NoName",5,1.6094379124341,6.74758652682932
"1135",23,31,"j","j",1,701,3,"B1","NoLabel","NoName",5,1.6094379124341,6.55250788703459
