"","Subject","TrialId","CRESP","RESP","ACC","RT","Block","Stimulus","Condition","CategoryName","NBlocks"
"1",12,1,"f","f",1,2715,1,"A2","Label","A_Saldie",1
"2",12,2,"f","f",1,1179,1,"A6","Label","A_Saldie",1
"3",12,3,"h","h",1,1202,1,"B1","Label","A_Saldie",1
"4",12,4,"h","h",1,1017,1,"B2","Label","A_Saldie",1
"5",12,5,"f","f",1,896,1,"A3","Label","A_Saldie",1
"6",12,6,"f","f",1,668,1,"A4","Label","A_Saldie",1
"7",12,7,"h","h",1,700,1,"B5","Label","A_Saldie",1
"8",12,8,"h","h",1,798,1,"B3","Label","A_Saldie",1
"9",12,9,"h","h",1,708,1,"B4","Label","A_Saldie",1
"10",12,10,"h","h",1,521,1,"B6","Label","A_Saldie",1
"11",12,11,"f","f",1,989,1,"A5","Label","A_Saldie",1
"12",12,12,"f","f",1,669,1,"A1","Label","A_Saldie",1
"13",12,253,"h","h",1,748,0,"B6","Label","A_Saldie",1
"14",12,254,"f","f",1,693,0,"A4","Label","A_Saldie",1
"15",12,255,"f","f",1,535,0,"A3","Label","A_Saldie",1
"16",12,256,"h","h",1,408,0,"B4","Label","A_Saldie",1
"17",12,257,"f","f",1,479,0,"TestA2","Label","A_Saldie",1
"18",12,258,"h","h",1,610,0,"TestB2","Label","A_Saldie",1
"19",12,259,"f","f",1,553,0,"A5","Label","A_Saldie",1
"20",12,260,"h","h",1,524,0,"TestB1","Label","A_Saldie",1
"21",12,261,"h","h",1,528,0,"B3","Label","A_Saldie",1
"22",12,262,"h","f",0,493,0,"B5","Label","A_Saldie",1
"23",12,263,"f","f",1,531,0,"TestA1","Label","A_Saldie",1
"24",12,264,"f","f",1,841,0,"A6","Label","A_Saldie",1
"25",11,1,"h","f",0,4346,1,"B2","NoLabel","NoName",2
"26",11,2,"h","h",1,1366,1,"B5","NoLabel","NoName",2
"27",11,3,"f","h",0,1014,1,"A3","NoLabel","NoName",2
"28",11,4,"h","h",1,1464,1,"B1","NoLabel","NoName",2
"29",11,5,"h","h",1,957,1,"B3","NoLabel","NoName",2
"30",11,6,"h","h",1,704,1,"B4","NoLabel","NoName",2
"31",11,7,"f","f",1,560,1,"A1","NoLabel","NoName",2
"32",11,8,"f","f",1,943,1,"A6","NoLabel","NoName",2
"33",11,9,"h","h",1,784,1,"B6","NoLabel","NoName",2
"34",11,10,"f","f",1,1654,1,"A2","NoLabel","NoName",2
"35",11,11,"f","f",1,2006,1,"A5","NoLabel","NoName",2
"36",11,12,"f","f",1,790,1,"A4","NoLabel","NoName",2
"37",11,13,"f","f",1,844,2,"A5","NoLabel","NoName",2
"38",11,14,"f","f",1,631,2,"A4","NoLabel","NoName",2
"39",11,15,"f","f",1,520,2,"A6","NoLabel","NoName",2
"40",11,16,"f","f",1,938,2,"A2","NoLabel","NoName",2
"41",11,17,"h","h",1,2249,2,"B2","NoLabel","NoName",2
"42",11,18,"h","h",1,848,2,"B5","NoLabel","NoName",2
"43",11,19,"h","h",1,1058,2,"B4","NoLabel","NoName",2
"44",11,20,"h","h",1,573,2,"B1","NoLabel","NoName",2
"45",11,21,"h","h",1,655,2,"B3","NoLabel","NoName",2
"46",11,22,"h","h",1,714,2,"B6","NoLabel","NoName",2
"47",11,23,"f","f",1,707,2,"A3","NoLabel","NoName",2
"48",11,24,"f","f",1,979,2,"A1","NoLabel","NoName",2
"49",11,253,"h","h",1,996,0,"B6","NoLabel","NoName",2
"50",11,254,"h","h",1,671,0,"B5","NoLabel","NoName",2
"51",11,255,"h","h",1,586,0,"B3","NoLabel","NoName",2
"52",11,256,"h","h",1,667,0,"B4","NoLabel","NoName",2
"53",11,257,"f","f",1,726,0,"A3","NoLabel","NoName",2
"54",11,258,"h","h",1,678,0,"TestB1","NoLabel","NoName",2
"55",11,259,"h","h",1,1889,0,"TestB2","NoLabel","NoName",2
"56",11,260,"f","f",1,1521,0,"A6","NoLabel","NoName",2
"57",11,261,"f","f",1,1040,0,"TestA2","NoLabel","NoName",2
"58",11,262,"f","f",1,742,0,"TestA1","NoLabel","NoName",2
"59",11,263,"f","f",1,1638,0,"A5","NoLabel","NoName",2
"60",11,264,"f","f",1,1831,0,"A4","NoLabel","NoName",2
"61",1,1,"f","h",0,2591,1,"A5","Label","A_Gatoo",2
"62",1,2,"f","h",0,2186,1,"A6","Label","A_Gatoo",2
"63",1,3,"f","f",1,1855,1,"A2","Label","A_Gatoo",2
"64",1,4,"h","h",1,1476,1,"B1","Label","A_Gatoo",2
"65",1,5,"f","f",1,1038,1,"A3","Label","A_Gatoo",2
"66",1,6,"h","h",1,828,1,"B5","Label","A_Gatoo",2
"67",1,7,"f","f",1,1311,1,"A1","Label","A_Gatoo",2
"68",1,8,"h","h",1,883,1,"B4","Label","A_Gatoo",2
"69",1,9,"h","h",1,1019,1,"B2","Label","A_Gatoo",2
"70",1,10,"f","f",1,788,1,"A4","Label","A_Gatoo",2
"71",1,11,"h","h",1,824,1,"B3","Label","A_Gatoo",2
"72",1,12,"h","h",1,990,1,"B6","Label","A_Gatoo",2
"73",1,13,"f","f",1,821,2,"A3","Label","A_Gatoo",2
"74",1,14,"f","f",1,977,2,"A5","Label","A_Gatoo",2
"75",1,15,"h","h",1,740,2,"B5","Label","A_Gatoo",2
"76",1,16,"h","h",1,674,2,"B6","Label","A_Gatoo",2
"77",1,17,"h","h",1,706,2,"B1","Label","A_Gatoo",2
"78",1,18,"h","h",1,651,2,"B4","Label","A_Gatoo",2
"79",1,19,"f","f",1,1082,2,"A1","Label","A_Gatoo",2
"80",1,20,"h","h",1,670,2,"B3","Label","A_Gatoo",2
"81",1,21,"h","h",1,1354,2,"B2","Label","A_Gatoo",2
"82",1,22,"f","f",1,663,2,"A4","Label","A_Gatoo",2
"83",1,23,"f","f",1,810,2,"A2","Label","A_Gatoo",2
"84",1,24,"f","f",1,813,2,"A6","Label","A_Gatoo",2
"85",1,253,"f","f",1,734,0,"A3","Label","A_Gatoo",2
"86",1,254,"h","h",1,1483,0,"TestB2","Label","A_Gatoo",2
"87",1,255,"f","f",1,906,0,"A4","Label","A_Gatoo",2
"88",1,256,"f","f",1,766,0,"TestA1","Label","A_Gatoo",2
"89",1,257,"f","f",1,755,0,"A5","Label","A_Gatoo",2
"90",1,258,"h","h",1,722,0,"B5","Label","A_Gatoo",2
"91",1,259,"h","h",1,1028,0,"B6","Label","A_Gatoo",2
"92",1,260,"f","f",1,870,0,"A6","Label","A_Gatoo",2
"93",1,261,"h","h",1,917,0,"TestB1","Label","A_Gatoo",2
"94",1,262,"f","f",1,1220,0,"TestA2","Label","A_Gatoo",2
"95",1,263,"h","h",1,1134,0,"B3","Label","A_Gatoo",2
"96",1,264,"h","h",1,1394,0,"B4","Label","A_Gatoo",2
"97",10,1,"h","h",1,6613,1,"B1","NoLabel","NoName",2
"98",10,2,"h","h",1,3353,1,"B6","NoLabel","NoName",2
"99",10,3,"f","f",1,1984,1,"A6","NoLabel","NoName",2
"100",10,4,"h","f",0,2368,1,"B3","NoLabel","NoName",2
"101",10,5,"h","h",1,1496,1,"B4","NoLabel","NoName",2
"102",10,6,"f","h",0,1103,1,"A5","NoLabel","NoName",2
"103",10,7,"h","f",0,2636,1,"B2","NoLabel","NoName",2
"104",10,8,"h","h",1,1562,1,"B5","NoLabel","NoName",2
"105",10,9,"f","h",0,817,1,"A4","NoLabel","NoName",2
"106",10,10,"f","f",1,1723,1,"A3","NoLabel","NoName",2
"107",10,11,"f","f",1,1041,1,"A1","NoLabel","NoName",2
"108",10,12,"f","f",1,567,1,"A2","NoLabel","NoName",2
"109",10,13,"h","h",1,642,2,"B5","NoLabel","NoName",2
"110",10,14,"h","h",1,712,2,"B2","NoLabel","NoName",2
"111",10,15,"f","f",1,659,2,"A2","NoLabel","NoName",2
"112",10,16,"f","f",1,537,2,"A1","NoLabel","NoName",2
"113",10,17,"f","f",1,739,2,"A4","NoLabel","NoName",2
"114",10,18,"h","h",1,823,2,"B1","NoLabel","NoName",2
"115",10,19,"f","f",1,846,2,"A6","NoLabel","NoName",2
"116",10,20,"h","h",1,780,2,"B3","NoLabel","NoName",2
"117",10,21,"h","h",1,683,2,"B4","NoLabel","NoName",2
"118",10,22,"f","f",1,818,2,"A3","NoLabel","NoName",2
"119",10,23,"f","f",1,3682,2,"A5","NoLabel","NoName",2
"120",10,24,"h","h",1,1837,2,"B6","NoLabel","NoName",2
"121",10,253,"h","h",1,1276,0,"B3","NoLabel","NoName",2
"122",10,254,"h","h",1,612,0,"TestB1","NoLabel","NoName",2
"123",10,255,"f","f",1,638,0,"A6","NoLabel","NoName",2
"124",10,256,"h","h",1,1321,0,"B5","NoLabel","NoName",2
"125",10,257,"f","f",1,568,0,"A4","NoLabel","NoName",2
"126",10,258,"h","h",1,568,0,"B4","NoLabel","NoName",2
"127",10,259,"f","f",1,1335,0,"A5","NoLabel","NoName",2
"128",10,260,"h","h",1,1257,0,"TestB2","NoLabel","NoName",2
"129",10,261,"f","f",1,840,0,"A3","NoLabel","NoName",2
"130",10,262,"f","f",1,599,0,"TestA1","NoLabel","NoName",2
"131",10,263,"h","h",1,882,0,"B6","NoLabel","NoName",2
"132",10,264,"f","f",1,591,0,"TestA2","NoLabel","NoName",2
"133",14,1,"f","f",1,1841,1,"A5","NoLabel","NoName",1
"134",14,2,"h","h",1,2858,1,"B3","NoLabel","NoName",1
"135",14,3,"h","h",1,1003,1,"B4","NoLabel","NoName",1
"136",14,4,"f","f",1,770,1,"A3","NoLabel","NoName",1
"137",14,5,"f","f",1,689,1,"A6","NoLabel","NoName",1
"138",14,6,"f","f",1,1861,1,"A2","NoLabel","NoName",1
"139",14,7,"h","h",1,1045,1,"B1","NoLabel","NoName",1
"140",14,8,"f","f",1,746,1,"A1","NoLabel","NoName",1
"141",14,9,"f","f",1,912,1,"A4","NoLabel","NoName",1
"142",14,10,"h","h",1,802,1,"B6","NoLabel","NoName",1
"143",14,11,"h","h",1,825,1,"B5","NoLabel","NoName",1
"144",14,12,"h","h",1,1078,1,"B2","NoLabel","NoName",1
"145",14,253,"f","f",1,1804,0,"TestA2","NoLabel","NoName",1
"146",14,254,"f","f",1,661,0,"A6","NoLabel","NoName",1
"147",14,255,"h","h",1,735,0,"B6","NoLabel","NoName",1
"148",14,256,"h","h",1,841,0,"B3","NoLabel","NoName",1
"149",14,257,"f","f",1,955,0,"A5","NoLabel","NoName",1
"150",14,258,"f","h",0,2341,0,"TestA1","NoLabel","NoName",1
"151",14,259,"f","f",1,987,0,"A4","NoLabel","NoName",1
"152",14,260,"h","h",1,831,0,"TestB2","NoLabel","NoName",1
"153",14,261,"h","h",1,974,0,"B4","NoLabel","NoName",1
"154",14,262,"h","h",1,874,0,"B5","NoLabel","NoName",1
"155",14,263,"f","f",1,791,0,"A3","NoLabel","NoName",1
"156",14,264,"h","h",1,678,0,"TestB1","NoLabel","NoName",1
"157",16,1,"h","h",1,2880,1,"B5","Label","A_Saldie",2
"158",16,2,"f","f",1,2283,1,"A3","Label","A_Saldie",2
"159",16,3,"h","f",0,1970,1,"B2","Label","A_Saldie",2
"160",16,4,"f","h",0,2831,1,"A1","Label","A_Saldie",2
"161",16,5,"h","h",1,1704,1,"B1","Label","A_Saldie",2
"162",16,6,"h","f",0,2651,1,"B4","Label","A_Saldie",2
"163",16,7,"h","h",1,1241,1,"B6","Label","A_Saldie",2
"164",16,8,"f","h",0,1011,1,"A5","Label","A_Saldie",2
"165",16,9,"f","f",1,2028,1,"A4","Label","A_Saldie",2
"166",16,10,"f","f",1,2077,1,"A6","Label","A_Saldie",2
"167",16,11,"f","f",1,1498,1,"A2","Label","A_Saldie",2
"168",16,12,"h","h",1,1066,1,"B3","Label","A_Saldie",2
"169",16,13,"h","h",1,1112,2,"B2","Label","A_Saldie",2
"170",16,14,"f","f",1,746,2,"A1","Label","A_Saldie",2
"171",16,15,"f","f",1,967,2,"A2","Label","A_Saldie",2
"172",16,16,"h","h",1,708,2,"B6","Label","A_Saldie",2
"173",16,17,"h","h",1,654,2,"B4","Label","A_Saldie",2
"174",16,18,"f","f",1,1031,2,"A3","Label","A_Saldie",2
"175",16,19,"f","f",1,803,2,"A4","Label","A_Saldie",2
"176",16,20,"h","h",1,650,2,"B3","Label","A_Saldie",2
"177",16,21,"h","h",1,565,2,"B5","Label","A_Saldie",2
"178",16,22,"f","f",1,1156,2,"A6","Label","A_Saldie",2
"179",16,23,"h","h",1,642,2,"B1","Label","A_Saldie",2
"180",16,24,"f","f",1,1074,2,"A5","Label","A_Saldie",2
"181",16,253,"h","h",1,792,0,"B6","Label","A_Saldie",2
"182",16,254,"f","f",1,716,0,"A4","Label","A_Saldie",2
"183",16,255,"h","h",1,671,0,"B4","Label","A_Saldie",2
"184",16,256,"f","f",1,784,0,"TestA2","Label","A_Saldie",2
"185",16,257,"f","f",1,879,0,"A3","Label","A_Saldie",2
"186",16,258,"f","f",1,796,0,"A6","Label","A_Saldie",2
"187",16,259,"h","h",1,759,0,"TestB2","Label","A_Saldie",2
"188",16,260,"h","h",1,618,0,"TestB1","Label","A_Saldie",2
"189",16,261,"f","f",1,806,0,"TestA1","Label","A_Saldie",2
"190",16,262,"h","h",1,768,0,"B3","Label","A_Saldie",2
"191",16,263,"h","h",1,764,0,"B5","Label","A_Saldie",2
"192",16,264,"f","f",1,682,0,"A5","Label","A_Saldie",2
"193",13,1,"h","h",1,4546,1,"B6","Label","A_Gatoo",3
"194",13,2,"h","h",1,1956,1,"B4","Label","A_Gatoo",3
"195",13,3,"h","f",0,4124,1,"B3","Label","A_Gatoo",3
"196",13,4,"h","h",1,2011,1,"B1","Label","A_Gatoo",3
"197",13,5,"f","f",1,1159,1,"A6","Label","A_Gatoo",3
"198",13,6,"f","h",0,1712,1,"A2","Label","A_Gatoo",3
"199",13,7,"f","f",1,1593,1,"A1","Label","A_Gatoo",3
"200",13,8,"f","h",0,1455,1,"A4","Label","A_Gatoo",3
"201",13,9,"f","f",1,925,1,"A3","Label","A_Gatoo",3
"202",13,10,"f","h",0,1740,1,"A5","Label","A_Gatoo",3
"203",13,11,"h","f",0,1014,1,"B2","Label","A_Gatoo",3
"204",13,12,"h","h",1,791,1,"B5","Label","A_Gatoo",3
"205",13,13,"h","f",0,1066,2,"B3","Label","A_Gatoo",3
"206",13,14,"f","h",0,2684,2,"A3","Label","A_Gatoo",3
"207",13,15,"f","f",1,2353,2,"A6","Label","A_Gatoo",3
"208",13,16,"h","h",1,1359,2,"B4","Label","A_Gatoo",3
"209",13,17,"h","h",1,720,2,"B2","Label","A_Gatoo",3
"210",13,18,"f","f",1,657,2,"A4","Label","A_Gatoo",3
"211",13,19,"f","f",1,1059,2,"A5","Label","A_Gatoo",3
"212",13,20,"h","h",1,1040,2,"B6","Label","A_Gatoo",3
"213",13,21,"h","h",1,647,2,"B5","Label","A_Gatoo",3
"214",13,22,"f","f",1,975,2,"A2","Label","A_Gatoo",3
"215",13,23,"f","f",1,1301,2,"A1","Label","A_Gatoo",3
"216",13,24,"h","h",1,1359,2,"B1","Label","A_Gatoo",3
"217",13,25,"f","f",1,683,3,"A6","Label","A_Gatoo",3
"218",13,26,"h","h",1,654,3,"B3","Label","A_Gatoo",3
"219",13,27,"f","f",1,613,3,"A5","Label","A_Gatoo",3
"220",13,28,"h","h",1,841,3,"B5","Label","A_Gatoo",3
"221",13,29,"h","h",1,1109,3,"B1","Label","A_Gatoo",3
"222",13,30,"h","h",1,848,3,"B2","Label","A_Gatoo",3
"223",13,31,"f","f",1,1193,3,"A2","Label","A_Gatoo",3
"224",13,32,"h","h",1,718,3,"B4","Label","A_Gatoo",3
"225",13,33,"f","f",1,808,3,"A1","Label","A_Gatoo",3
"226",13,34,"f","f",1,1357,3,"A4","Label","A_Gatoo",3
"227",13,35,"f","f",1,659,3,"A3","Label","A_Gatoo",3
"228",13,36,"h","h",1,877,3,"B6","Label","A_Gatoo",3
"229",13,253,"h","h",1,1415,0,"TestB2","Label","A_Gatoo",3
"230",13,254,"f","f",1,675,0,"A3","Label","A_Gatoo",3
"231",13,255,"h","h",1,670,0,"B3","Label","A_Gatoo",3
"232",13,256,"f","f",1,1142,0,"A5","Label","A_Gatoo",3
"233",13,257,"h","h",1,720,0,"B5","Label","A_Gatoo",3
"234",13,258,"f","f",1,665,0,"A4","Label","A_Gatoo",3
"235",13,259,"f","f",1,908,0,"A6","Label","A_Gatoo",3
"236",13,260,"f","f",1,760,0,"TestA1","Label","A_Gatoo",3
"237",13,261,"h","h",1,750,0,"TestB1","Label","A_Gatoo",3
"238",13,262,"h","h",1,624,0,"B4","Label","A_Gatoo",3
"239",13,263,"f","f",1,2605,0,"TestA2","Label","A_Gatoo",3
"240",13,264,"h","h",1,750,0,"B6","Label","A_Gatoo",3
"241",15,1,"f","f",1,8882,1,"A2","NoLabel","NoName",2
"242",15,2,"h","f",0,8258,1,"B5","NoLabel","NoName",2
"243",15,3,"","",0,0,1,"A1","NoLabel","NoName",2
"244",15,4,"h","h",1,2520,1,"B4","NoLabel","NoName",2
"245",15,5,"h","f",0,2552,1,"B1","NoLabel","NoName",2
"246",15,6,"f","f",1,2897,1,"A4","NoLabel","NoName",2
"247",15,7,"f","f",1,2709,1,"A3","NoLabel","NoName",2
"248",15,8,"h","h",1,2124,1,"B6","NoLabel","NoName",2
"249",15,9,"h","h",1,4600,1,"B2","NoLabel","NoName",2
"250",15,10,"f","f",1,5604,1,"A6","NoLabel","NoName",2
"251",15,11,"h","h",1,2327,1,"B3","NoLabel","NoName",2
"252",15,12,"f","f",1,2363,1,"A5","NoLabel","NoName",2
"253",15,13,"h","h",1,4404,2,"B5","NoLabel","NoName",2
"254",15,14,"h","h",1,1160,2,"B6","NoLabel","NoName",2
"255",15,15,"f","f",1,3408,2,"A6","NoLabel","NoName",2
"256",15,16,"f","f",1,1015,2,"A1","NoLabel","NoName",2
"257",15,17,"h","h",1,1007,2,"B2","NoLabel","NoName",2
"258",15,18,"f","f",1,1340,2,"A4","NoLabel","NoName",2
"259",15,19,"f","f",1,1274,2,"A5","NoLabel","NoName",2
"260",15,20,"h","h",1,1636,2,"B1","NoLabel","NoName",2
"261",15,21,"h","h",1,720,2,"B3","NoLabel","NoName",2
"262",15,22,"f","f",1,810,2,"A2","NoLabel","NoName",2
"263",15,23,"f","f",1,2381,2,"A3","NoLabel","NoName",2
"264",15,24,"h","h",1,773,2,"B4","NoLabel","NoName",2
"265",15,253,"h","h",1,1064,0,"B6","NoLabel","NoName",2
"266",15,254,"f","f",1,904,0,"A5","NoLabel","NoName",2
"267",15,255,"f","f",1,1389,0,"A6","NoLabel","NoName",2
"268",15,256,"h","h",1,587,0,"B4","NoLabel","NoName",2
"269",15,257,"f","f",1,709,0,"A4","NoLabel","NoName",2
"270",15,258,"h","h",1,851,0,"B5","NoLabel","NoName",2
"271",15,259,"f","f",1,710,0,"TestA1","NoLabel","NoName",2
"272",15,260,"f","f",1,890,0,"A3","NoLabel","NoName",2
"273",15,261,"h","h",1,1623,0,"TestB2","NoLabel","NoName",2
"274",15,262,"h","h",1,659,0,"TestB1","NoLabel","NoName",2
"275",15,263,"f","f",1,714,0,"TestA2","NoLabel","NoName",2
"276",15,264,"h","h",1,646,0,"B3","NoLabel","NoName",2
"277",17,1,"f","f",1,2912,1,"A1","Label","A_Gatoo",2
"278",17,2,"h","h",1,1450,1,"B4","Label","A_Gatoo",2
"279",17,3,"h","h",1,959,1,"B6","Label","A_Gatoo",2
"280",17,4,"f","f",1,1147,1,"A3","Label","A_Gatoo",2
"281",17,5,"h","f",0,813,1,"B3","Label","A_Gatoo",2
"282",17,6,"f","h",0,954,1,"A4","Label","A_Gatoo",2
"283",17,7,"h","f",0,3274,1,"B2","Label","A_Gatoo",2
"284",17,8,"h","f",0,1433,1,"B5","Label","A_Gatoo",2
"285",17,9,"f","h",0,1507,1,"A6","Label","A_Gatoo",2
"286",17,10,"h","f",0,1843,1,"B1","Label","A_Gatoo",2
"287",17,11,"f","f",1,784,1,"A5","Label","A_Gatoo",2
"288",17,12,"f","f",1,878,1,"A2","Label","A_Gatoo",2
"289",17,13,"h","h",1,509,2,"B2","Label","A_Gatoo",2
"290",17,14,"h","h",1,661,2,"B5","Label","A_Gatoo",2
"291",17,15,"f","f",1,3232,2,"A2","Label","A_Gatoo",2
"292",17,16,"f","f",1,514,2,"A6","Label","A_Gatoo",2
"293",17,17,"h","h",1,430,2,"B1","Label","A_Gatoo",2
"294",17,18,"h","h",1,1209,2,"B6","Label","A_Gatoo",2
"295",17,19,"h","h",1,512,2,"B4","Label","A_Gatoo",2
"296",17,20,"h","h",1,653,2,"B3","Label","A_Gatoo",2
"297",17,21,"f","f",1,581,2,"A4","Label","A_Gatoo",2
"298",17,22,"f","f",1,490,2,"A3","Label","A_Gatoo",2
"299",17,23,"f","f",1,563,2,"A5","Label","A_Gatoo",2
"300",17,24,"f","f",1,459,2,"A1","Label","A_Gatoo",2
"301",17,253,"h","h",1,808,0,"B3","Label","A_Gatoo",2
"302",17,254,"f","f",1,1074,0,"A5","Label","A_Gatoo",2
"303",17,255,"h","h",1,760,0,"B4","Label","A_Gatoo",2
"304",17,256,"h","h",1,582,0,"TestB1","Label","A_Gatoo",2
"305",17,257,"f","f",1,642,0,"TestA1","Label","A_Gatoo",2
"306",17,258,"h","h",1,532,0,"TestB2","Label","A_Gatoo",2
"307",17,259,"f","f",1,504,0,"A3","Label","A_Gatoo",2
"308",17,260,"h","h",1,484,0,"B5","Label","A_Gatoo",2
"309",17,261,"f","f",1,469,0,"A6","Label","A_Gatoo",2
"310",17,262,"f","f",1,509,0,"A4","Label","A_Gatoo",2
"311",17,263,"h","h",1,691,0,"B6","Label","A_Gatoo",2
"312",17,264,"f","f",1,435,0,"TestA2","Label","A_Gatoo",2
"313",19,1,"f","h",0,3663,1,"A5","NoLabel","NoName",2
"314",19,2,"h","f",0,1677,1,"B1","NoLabel","NoName",2
"315",19,3,"h","f",0,4271,1,"B6","NoLabel","NoName",2
"316",19,4,"f","f",1,1948,1,"A1","NoLabel","NoName",2
"317",19,5,"f","h",0,2103,1,"A2","NoLabel","NoName",2
"318",19,6,"f","f",1,2061,1,"A4","NoLabel","NoName",2
"319",19,7,"f","h",0,2667,1,"A3","NoLabel","NoName",2
"320",19,8,"h","h",1,1767,1,"B5","NoLabel","NoName",2
"321",19,9,"f","f",1,1262,1,"A6","NoLabel","NoName",2
"322",19,10,"h","h",1,1186,1,"B3","NoLabel","NoName",2
"323",19,11,"h","h",1,1442,1,"B2","NoLabel","NoName",2
"324",19,12,"h","h",1,881,1,"B4","NoLabel","NoName",2
"325",19,13,"f","f",1,926,2,"A4","NoLabel","NoName",2
"326",19,14,"h","h",1,942,2,"B4","NoLabel","NoName",2
"327",19,15,"h","h",1,981,2,"B3","NoLabel","NoName",2
"328",19,16,"f","f",1,701,2,"A6","NoLabel","NoName",2
"329",19,17,"h","h",1,946,2,"B6","NoLabel","NoName",2
"330",19,18,"h","h",1,1073,2,"B5","NoLabel","NoName",2
"331",19,19,"f","f",1,616,2,"A3","NoLabel","NoName",2
"332",19,20,"f","f",1,1153,2,"A1","NoLabel","NoName",2
"333",19,21,"h","h",1,722,2,"B2","NoLabel","NoName",2
"334",19,22,"f","f",1,953,2,"A5","NoLabel","NoName",2
"335",19,23,"h","h",1,913,2,"B1","NoLabel","NoName",2
"336",19,24,"f","f",1,908,2,"A2","NoLabel","NoName",2
"337",19,253,"f","f",1,836,0,"A4","NoLabel","NoName",2
"338",19,254,"f","f",1,605,0,"TestA1","NoLabel","NoName",2
"339",19,255,"f","f",1,835,0,"A3","NoLabel","NoName",2
"340",19,256,"h","h",1,673,0,"B5","NoLabel","NoName",2
"341",19,257,"h","h",1,542,0,"TestB1","NoLabel","NoName",2
"342",19,258,"f","f",1,598,0,"A6","NoLabel","NoName",2
"343",19,259,"h","h",1,635,0,"B6","NoLabel","NoName",2
"344",19,260,"f","f",1,667,0,"A5","NoLabel","NoName",2
"345",19,261,"h","h",1,1590,0,"B4","NoLabel","NoName",2
"346",19,262,"f","f",1,593,0,"TestA2","NoLabel","NoName",2
"347",19,263,"h","h",1,829,0,"TestB2","NoLabel","NoName",2
"348",19,264,"h","h",1,745,0,"B3","NoLabel","NoName",2
"349",18,1,"f","f",1,3696,1,"A3","NoLabel","NoName",2
"350",18,2,"h","f",0,3022,1,"B3","NoLabel","NoName",2
"351",18,3,"h","h",1,3049,1,"B2","NoLabel","NoName",2
"352",18,4,"f","f",1,1198,1,"A4","NoLabel","NoName",2
"353",18,5,"h","h",1,2342,1,"B6","NoLabel","NoName",2
"354",18,6,"f","h",0,4400,1,"A5","NoLabel","NoName",2
"355",18,7,"f","f",1,1235,1,"A2","NoLabel","NoName",2
"356",18,8,"f","f",1,1494,1,"A1","NoLabel","NoName",2
"357",18,9,"f","h",0,1960,1,"A6","NoLabel","NoName",2
"358",18,10,"h","h",1,2220,1,"B1","NoLabel","NoName",2
"359",18,11,"h","h",1,1390,1,"B4","NoLabel","NoName",2
"360",18,12,"h","h",1,1659,1,"B5","NoLabel","NoName",2
"361",18,13,"h","h",1,1479,2,"B2","NoLabel","NoName",2
"362",18,14,"f","f",1,978,2,"A1","NoLabel","NoName",2
"363",18,15,"h","h",1,1060,2,"B3","NoLabel","NoName",2
"364",18,16,"h","h",1,1427,2,"B4","NoLabel","NoName",2
"365",18,17,"f","f",1,1629,2,"A4","NoLabel","NoName",2
"366",18,18,"f","f",1,1060,2,"A2","NoLabel","NoName",2
"367",18,19,"h","h",1,1003,2,"B5","NoLabel","NoName",2
"368",18,20,"f","f",1,2183,2,"A5","NoLabel","NoName",2
"369",18,21,"f","f",1,1464,2,"A6","NoLabel","NoName",2
"370",18,22,"h","h",1,770,2,"B6","NoLabel","NoName",2
"371",18,23,"h","h",1,800,2,"B1","NoLabel","NoName",2
"372",18,24,"f","f",1,2736,2,"A3","NoLabel","NoName",2
"373",18,253,"h","h",1,1258,0,"TestB2","NoLabel","NoName",2
"374",18,254,"f","f",1,1288,0,"A3","NoLabel","NoName",2
"375",18,255,"f","f",1,1554,0,"A6","NoLabel","NoName",2
"376",18,256,"h","h",1,1937,0,"B5","NoLabel","NoName",2
"377",18,257,"f","f",1,1322,0,"A5","NoLabel","NoName",2
"378",18,258,"f","f",1,2537,0,"TestA1","NoLabel","NoName",2
"379",18,259,"h","h",1,1359,0,"B6","NoLabel","NoName",2
"380",18,260,"f","f",1,1272,0,"A4","NoLabel","NoName",2
"381",18,261,"h","h",1,1325,0,"TestB1","NoLabel","NoName",2
"382",18,262,"h","h",1,1359,0,"B3","NoLabel","NoName",2
"383",18,263,"h","h",1,1235,0,"B4","NoLabel","NoName",2
"384",18,264,"f","f",1,914,0,"TestA2","NoLabel","NoName",2
"385",20,1,"f","f",1,2154,1,"A5","Label","A_Saldie",3
"386",20,2,"h","f",0,991,1,"B6","Label","A_Saldie",3
"387",20,3,"f","f",1,937,1,"A1","Label","A_Saldie",3
"388",20,4,"h","f",0,894,1,"B3","Label","A_Saldie",3
"389",20,5,"h","f",0,1345,1,"B1","Label","A_Saldie",3
"390",20,6,"h","f",0,2935,1,"B4","Label","A_Saldie",3
"391",20,7,"f","h",0,1426,1,"A4","Label","A_Saldie",3
"392",20,8,"f","f",1,839,1,"A2","Label","A_Saldie",3
"393",20,9,"h","h",1,1490,1,"B2","Label","A_Saldie",3
"394",20,10,"h","h",1,759,1,"B5","Label","A_Saldie",3
"395",20,11,"f","f",1,735,1,"A3","Label","A_Saldie",3
"396",20,12,"f","f",1,1848,1,"A6","Label","A_Saldie",3
"397",20,13,"f","f",1,1047,2,"A2","Label","A_Saldie",3
"398",20,14,"h","h",1,811,2,"B5","Label","A_Saldie",3
"399",20,15,"h","h",1,1050,2,"B2","Label","A_Saldie",3
"400",20,16,"f","h",0,1259,2,"A4","Label","A_Saldie",3
"401",20,17,"h","h",1,795,2,"B4","Label","A_Saldie",3
"402",20,18,"f","f",1,672,2,"A6","Label","A_Saldie",3
"403",20,19,"f","f",1,2014,2,"A3","Label","A_Saldie",3
"404",20,20,"h","h",1,559,2,"B3","Label","A_Saldie",3
"405",20,21,"f","f",1,1105,2,"A5","Label","A_Saldie",3
"406",20,22,"h","h",1,687,2,"B6","Label","A_Saldie",3
"407",20,23,"f","f",1,560,2,"A1","Label","A_Saldie",3
"408",20,24,"h","h",1,720,2,"B1","Label","A_Saldie",3
"409",20,25,"f","f",1,967,3,"A4","Label","A_Saldie",3
"410",20,26,"f","f",1,852,3,"A6","Label","A_Saldie",3
"411",20,27,"f","f",1,640,3,"A2","Label","A_Saldie",3
"412",20,28,"f","f",1,564,3,"A3","Label","A_Saldie",3
"413",20,29,"h","h",1,535,3,"B4","Label","A_Saldie",3
"414",20,30,"f","f",1,613,3,"A1","Label","A_Saldie",3
"415",20,31,"h","h",1,1707,3,"B1","Label","A_Saldie",3
"416",20,32,"f","f",1,2243,3,"A5","Label","A_Saldie",3
"417",20,33,"h","h",1,822,3,"B2","Label","A_Saldie",3
"418",20,34,"h","h",1,874,3,"B6","Label","A_Saldie",3
"419",20,35,"h","h",1,1151,3,"B5","Label","A_Saldie",3
"420",20,36,"h","h",1,590,3,"B3","Label","A_Saldie",3
"421",20,253,"h","h",1,874,0,"B3","Label","A_Saldie",3
"422",20,254,"f","f",1,509,0,"A6","Label","A_Saldie",3
"423",20,255,"h","h",1,577,0,"B6","Label","A_Saldie",3
"424",20,256,"f","f",1,447,0,"TestA1","Label","A_Saldie",3
"425",20,257,"h","h",1,428,0,"TestB2","Label","A_Saldie",3
"426",20,258,"h","h",1,404,0,"TestB1","Label","A_Saldie",3
"427",20,259,"h","h",1,473,0,"B5","Label","A_Saldie",3
"428",20,260,"h","h",1,476,0,"B4","Label","A_Saldie",3
"429",20,261,"f","f",1,402,0,"A3","Label","A_Saldie",3
"430",20,262,"f","f",1,458,0,"A5","Label","A_Saldie",3
"431",20,263,"f","f",1,439,0,"A4","Label","A_Saldie",3
"432",20,264,"f","f",1,360,0,"TestA2","Label","A_Saldie",3
"433",22,1,"f","f",1,1137,1,"A4","NoLabel","NoName",2
"434",22,2,"f","f",1,979,1,"A2","NoLabel","NoName",2
"435",22,3,"f","f",1,1268,1,"A3","NoLabel","NoName",2
"436",22,4,"h","h",1,1763,1,"B6","NoLabel","NoName",2
"437",22,5,"h","f",0,751,1,"B2","NoLabel","NoName",2
"438",22,6,"f","f",1,977,1,"A6","NoLabel","NoName",2
"439",22,7,"h","h",1,1013,1,"B5","NoLabel","NoName",2
"440",22,8,"h","h",1,692,1,"B1","NoLabel","NoName",2
"441",22,9,"f","f",1,775,1,"A5","NoLabel","NoName",2
"442",22,10,"f","f",1,698,1,"A1","NoLabel","NoName",2
"443",22,11,"h","h",1,699,1,"B3","NoLabel","NoName",2
"444",22,12,"h","f",0,668,1,"B4","NoLabel","NoName",2
"445",22,13,"f","f",1,878,2,"A2","NoLabel","NoName",2
"446",22,14,"h","h",1,646,2,"B6","NoLabel","NoName",2
"447",22,15,"f","f",1,1104,2,"A6","NoLabel","NoName",2
"448",22,16,"h","h",1,875,2,"B4","NoLabel","NoName",2
"449",22,17,"h","h",1,627,2,"B1","NoLabel","NoName",2
"450",22,18,"f","f",1,485,2,"A4","NoLabel","NoName",2
"451",22,19,"h","h",1,565,2,"B2","NoLabel","NoName",2
"452",22,20,"f","f",1,580,2,"A3","NoLabel","NoName",2
"453",22,21,"h","h",1,736,2,"B5","NoLabel","NoName",2
"454",22,22,"f","f",1,440,2,"A1","NoLabel","NoName",2
"455",22,23,"h","h",1,532,2,"B3","NoLabel","NoName",2
"456",22,24,"f","f",1,469,2,"A5","NoLabel","NoName",2
"457",22,253,"f","f",1,877,0,"A4","NoLabel","NoName",2
"458",22,254,"h","h",1,498,0,"B3","NoLabel","NoName",2
"459",22,255,"f","f",1,491,0,"TestA2","NoLabel","NoName",2
"460",22,256,"f","f",1,563,0,"A6","NoLabel","NoName",2
"461",22,257,"h","h",1,450,0,"TestB2","NoLabel","NoName",2
"462",22,258,"h","h",1,665,0,"B4","NoLabel","NoName",2
"463",22,259,"h","h",1,421,0,"B5","NoLabel","NoName",2
"464",22,260,"h","h",1,437,0,"TestB1","NoLabel","NoName",2
"465",22,261,"f","f",1,476,0,"A5","NoLabel","NoName",2
"466",22,262,"f","f",1,696,0,"TestA1","NoLabel","NoName",2
"467",22,263,"f","f",1,511,0,"A3","NoLabel","NoName",2
"468",22,264,"h","h",1,544,0,"B6","NoLabel","NoName",2
"469",21,1,"f","f",1,1438,1,"A1","Label","A_Gatoo",2
"470",21,2,"h","f",0,1622,1,"B2","Label","A_Gatoo",2
"471",21,3,"f","f",1,1402,1,"A2","Label","A_Gatoo",2
"472",21,4,"h","h",1,1279,1,"B6","Label","A_Gatoo",2
"473",21,5,"f","f",1,2136,1,"A3","Label","A_Gatoo",2
"474",21,6,"f","h",0,1454,1,"A6","Label","A_Gatoo",2
"475",21,7,"f","h",0,1572,1,"A5","Label","A_Gatoo",2
"476",21,8,"h","f",0,2443,1,"B4","Label","A_Gatoo",2
"477",21,9,"h","f",0,1779,1,"B1","Label","A_Gatoo",2
"478",21,10,"h","h",1,2292,1,"B3","Label","A_Gatoo",2
"479",21,11,"h","h",1,1323,1,"B5","Label","A_Gatoo",2
"480",21,12,"f","f",1,1039,1,"A4","Label","A_Gatoo",2
"481",21,13,"f","f",1,1897,2,"A5","Label","A_Gatoo",2
"482",21,14,"h","h",1,1276,2,"B3","Label","A_Gatoo",2
"483",21,15,"h","h",1,1286,2,"B4","Label","A_Gatoo",2
"484",21,16,"h","h",1,1065,2,"B1","Label","A_Gatoo",2
"485",21,17,"h","h",1,1171,2,"B2","Label","A_Gatoo",2
"486",21,18,"h","h",1,1364,2,"B6","Label","A_Gatoo",2
"487",21,19,"f","f",1,1077,2,"A4","Label","A_Gatoo",2
"488",21,20,"f","f",1,1516,2,"A2","Label","A_Gatoo",2
"489",21,21,"f","f",1,2068,2,"A6","Label","A_Gatoo",2
"490",21,22,"f","f",1,1003,2,"A1","Label","A_Gatoo",2
"491",21,23,"h","h",1,956,2,"B5","Label","A_Gatoo",2
"492",21,24,"f","f",1,806,2,"A3","Label","A_Gatoo",2
"493",21,253,"f","f",1,1026,0,"A5","Label","A_Gatoo",2
"494",21,254,"h","h",1,1014,0,"B5","Label","A_Gatoo",2
"495",21,255,"f","f",1,963,0,"TestA1","Label","A_Gatoo",2
"496",21,256,"h","h",1,979,0,"TestB2","Label","A_Gatoo",2
"497",21,257,"f","f",1,862,0,"TestA2","Label","A_Gatoo",2
"498",21,258,"f","f",1,687,0,"A4","Label","A_Gatoo",2
"499",21,259,"f","f",1,712,0,"A3","Label","A_Gatoo",2
"500",21,260,"h","h",1,741,0,"B3","Label","A_Gatoo",2
"501",21,261,"h","h",1,1007,0,"TestB1","Label","A_Gatoo",2
"502",21,262,"h","h",1,819,0,"B6","Label","A_Gatoo",2
"503",21,263,"h","h",1,694,0,"B4","Label","A_Gatoo",2
"504",21,264,"f","f",1,834,0,"A6","Label","A_Gatoo",2
"505",23,1,"f","f",1,1808,1,"A2","NoLabel","NoName",3
"506",23,2,"f","f",1,1110,1,"A6","NoLabel","NoName",3
"507",23,3,"h","f",0,992,1,"B1","NoLabel","NoName",3
"508",23,4,"h","h",1,985,1,"B6","NoLabel","NoName",3
"509",23,5,"h","h",1,786,1,"B4","NoLabel","NoName",3
"510",23,6,"h","f",0,1013,1,"B5","NoLabel","NoName",3
"511",23,7,"f","f",1,1534,1,"A5","NoLabel","NoName",3
"512",23,8,"f","f",1,1031,1,"A1","NoLabel","NoName",3
"513",23,9,"f","f",1,1129,1,"A3","NoLabel","NoName",3
"514",23,10,"h","h",1,725,1,"B2","NoLabel","NoName",3
"515",23,11,"h","h",1,941,1,"B3","NoLabel","NoName",3
"516",23,12,"f","f",1,809,1,"A4","NoLabel","NoName",3
"517",23,13,"h","h",1,694,2,"B6","NoLabel","NoName",3
"518",23,14,"f","f",1,768,2,"A2","NoLabel","NoName",3
"519",23,15,"f","f",1,819,2,"A5","NoLabel","NoName",3
"520",23,16,"h","h",1,534,2,"B4","NoLabel","NoName",3
"521",23,17,"h","h",1,559,2,"B1","NoLabel","NoName",3
"522",23,18,"f","h",0,960,2,"A6","NoLabel","NoName",3
"523",23,19,"h","h",1,623,2,"B3","NoLabel","NoName",3
"524",23,20,"h","h",1,686,2,"B2","NoLabel","NoName",3
"525",23,21,"f","f",1,491,2,"A4","NoLabel","NoName",3
"526",23,22,"h","h",1,759,2,"B5","NoLabel","NoName",3
"527",23,23,"f","f",1,750,2,"A3","NoLabel","NoName",3
"528",23,24,"f","f",1,641,2,"A1","NoLabel","NoName",3
"529",23,25,"h","h",1,533,3,"B1","NoLabel","NoName",3
"530",23,26,"f","f",1,637,3,"A4","NoLabel","NoName",3
"531",23,27,"f","f",1,778,3,"A6","NoLabel","NoName",3
"532",23,28,"h","h",1,503,3,"B2","NoLabel","NoName",3
"533",23,29,"h","h",1,524,3,"B6","NoLabel","NoName",3
"534",23,30,"f","f",1,566,3,"A5","NoLabel","NoName",3
"535",23,31,"f","f",1,736,3,"A2","NoLabel","NoName",3
"536",23,32,"f","f",1,665,3,"A3","NoLabel","NoName",3
"537",23,33,"h","h",1,580,3,"B4","NoLabel","NoName",3
"538",23,34,"f","f",1,624,3,"A1","NoLabel","NoName",3
"539",23,35,"h","h",1,713,3,"B5","NoLabel","NoName",3
"540",23,36,"h","h",1,544,3,"B3","NoLabel","NoName",3
"541",23,253,"h","h",1,642,0,"TestB1","NoLabel","NoName",3
"542",23,254,"f","f",1,641,0,"A4","NoLabel","NoName",3
"543",23,255,"f","f",1,756,0,"A3","NoLabel","NoName",3
"544",23,256,"h","h",1,657,0,"B6","NoLabel","NoName",3
"545",23,257,"h","h",1,677,0,"B4","NoLabel","NoName",3
"546",23,258,"h","h",1,873,0,"TestB2","NoLabel","NoName",3
"547",23,259,"f","f",1,1028,0,"A5","NoLabel","NoName",3
"548",23,260,"f","f",1,730,0,"TestA2","NoLabel","NoName",3
"549",23,261,"h","h",1,860,0,"B3","NoLabel","NoName",3
"550",23,262,"f","f",1,684,0,"A6","NoLabel","NoName",3
"551",23,263,"f","f",1,949,0,"TestA1","NoLabel","NoName",3
"552",23,264,"h","h",1,952,0,"B5","NoLabel","NoName",3
"553",24,1,"h","f",0,3704,1,"B3","Label","A_Saldie",2
"554",24,2,"h","h",1,1126,1,"B1","Label","A_Saldie",2
"555",24,3,"f","f",1,1459,1,"A1","Label","A_Saldie",2
"556",24,4,"f","f",1,1349,1,"A3","Label","A_Saldie",2
"557",24,5,"h","h",1,850,1,"B4","Label","A_Saldie",2
"558",24,6,"f","f",1,780,1,"A5","Label","A_Saldie",2
"559",24,7,"h","h",1,1564,1,"B6","Label","A_Saldie",2
"560",24,8,"f","f",1,523,1,"A2","Label","A_Saldie",2
"561",24,9,"f","f",1,1122,1,"A6","Label","A_Saldie",2
"562",24,10,"h","h",1,744,1,"B5","Label","A_Saldie",2
"563",24,11,"f","f",1,862,1,"A4","Label","A_Saldie",2
"564",24,12,"h","h",1,968,1,"B2","Label","A_Saldie",2
"565",24,13,"h","h",1,940,2,"B3","Label","A_Saldie",2
"566",24,14,"f","f",1,544,2,"A2","Label","A_Saldie",2
"567",24,15,"f","f",1,1055,2,"A6","Label","A_Saldie",2
"568",24,16,"h","h",1,714,2,"B1","Label","A_Saldie",2
"569",24,17,"h","h",1,815,2,"B4","Label","A_Saldie",2
"570",24,18,"f","f",1,701,2,"A4","Label","A_Saldie",2
"571",24,19,"f","f",1,721,2,"A1","Label","A_Saldie",2
"572",24,20,"h","h",1,801,2,"B5","Label","A_Saldie",2
"573",24,21,"h","h",1,935,2,"B2","Label","A_Saldie",2
"574",24,22,"f","f",1,594,2,"A5","Label","A_Saldie",2
"575",24,23,"f","f",1,922,2,"A3","Label","A_Saldie",2
"576",24,24,"h","h",1,692,2,"B6","Label","A_Saldie",2
"577",24,253,"f","f",1,874,0,"A5","Label","A_Saldie",2
"578",24,254,"h","h",1,1115,0,"TestB2","Label","A_Saldie",2
"579",24,255,"h","h",1,601,0,"B4","Label","A_Saldie",2
"580",24,256,"f","f",1,612,0,"A6","Label","A_Saldie",2
"581",24,257,"h","h",1,653,0,"B3","Label","A_Saldie",2
"582",24,258,"f","f",1,558,0,"A3","Label","A_Saldie",2
"583",24,259,"h","h",1,819,0,"B6","Label","A_Saldie",2
"584",24,260,"f","f",1,832,0,"A4","Label","A_Saldie",2
"585",24,261,"h","h",1,905,0,"B5","Label","A_Saldie",2
"586",24,262,"f","f",1,826,0,"TestA1","Label","A_Saldie",2
"587",24,263,"f","f",1,724,0,"TestA2","Label","A_Saldie",2
"588",24,264,"h","h",1,622,0,"TestB1","Label","A_Saldie",2
"589",26,1,"f","f",1,3473,1,"A4","NoLabel","NoName",2
"590",26,2,"f","f",1,2783,1,"A5","NoLabel","NoName",2
"591",26,3,"h","f",0,1372,1,"B6","NoLabel","NoName",2
"592",26,4,"f","h",0,1179,1,"A3","NoLabel","NoName",2
"593",26,5,"f","h",0,1449,1,"A1","NoLabel","NoName",2
"594",26,6,"f","h",0,2406,1,"A2","NoLabel","NoName",2
"595",26,7,"h","f",0,775,1,"B5","NoLabel","NoName",2
"596",26,8,"f","f",1,1243,1,"A6","NoLabel","NoName",2
"597",26,9,"h","h",1,1392,1,"B3","NoLabel","NoName",2
"598",26,10,"h","h",1,4365,1,"B1","NoLabel","NoName",2
"599",26,11,"h","h",1,1579,1,"B4","NoLabel","NoName",2
"600",26,12,"h","h",1,1058,1,"B2","NoLabel","NoName",2
"601",26,13,"f","f",1,830,2,"A5","NoLabel","NoName",2
"602",26,14,"h","h",1,785,2,"B4","NoLabel","NoName",2
"603",26,15,"f","f",1,906,2,"A3","NoLabel","NoName",2
"604",26,16,"f","f",1,1186,2,"A1","NoLabel","NoName",2
"605",26,17,"f","f",1,978,2,"A2","NoLabel","NoName",2
"606",26,18,"h","h",1,634,2,"B2","NoLabel","NoName",2
"607",26,19,"h","h",1,630,2,"B3","NoLabel","NoName",2
"608",26,20,"f","f",1,609,2,"A6","NoLabel","NoName",2
"609",26,21,"f","f",1,661,2,"A4","NoLabel","NoName",2
"610",26,22,"h","h",1,502,2,"B1","NoLabel","NoName",2
"611",26,23,"h","h",1,571,2,"B5","NoLabel","NoName",2
"612",26,24,"h","h",1,556,2,"B6","NoLabel","NoName",2
"613",26,253,"f","f",1,870,0,"A3","NoLabel","NoName",2
"614",26,254,"h","h",1,664,0,"B6","NoLabel","NoName",2
"615",26,255,"f","f",1,497,0,"A4","NoLabel","NoName",2
"616",26,256,"h","h",1,493,0,"B3","NoLabel","NoName",2
"617",26,257,"f","f",1,390,0,"TestA2","NoLabel","NoName",2
"618",26,258,"h","h",1,441,0,"B5","NoLabel","NoName",2
"619",26,259,"f","f",1,541,0,"A6","NoLabel","NoName",2
"620",26,260,"h","h",1,564,0,"TestB2","NoLabel","NoName",2
"621",26,261,"f","f",1,415,0,"TestA1","NoLabel","NoName",2
"622",26,262,"h","h",1,666,0,"TestB1","NoLabel","NoName",2
"623",26,263,"f","f",1,499,0,"A5","NoLabel","NoName",2
"624",26,264,"h","h",1,495,0,"B4","NoLabel","NoName",2
"625",28,1,"h","f",0,1399,1,"B5","Label","A_Saldie",2
"626",28,2,"f","h",0,2431,1,"A2","Label","A_Saldie",2
"627",28,3,"f","h",0,2082,1,"A6","Label","A_Saldie",2
"628",28,4,"h","h",1,3035,1,"B2","Label","A_Saldie",2
"629",28,5,"h","f",0,1409,1,"B1","Label","A_Saldie",2
"630",28,6,"h","h",1,4354,1,"B3","Label","A_Saldie",2
"631",28,7,"h","h",1,1909,1,"B4","Label","A_Saldie",2
"632",28,8,"h","h",1,2716,1,"B6","Label","A_Saldie",2
"633",28,9,"f","f",1,957,1,"A1","Label","A_Saldie",2
"634",28,10,"f","f",1,975,1,"A5","Label","A_Saldie",2
"635",28,11,"f","f",1,728,1,"A3","Label","A_Saldie",2
"636",28,12,"f","f",1,688,1,"A4","Label","A_Saldie",2
"637",28,13,"h","h",1,714,2,"B6","Label","A_Saldie",2
"638",28,14,"h","h",1,1382,2,"B3","Label","A_Saldie",2
"639",28,15,"h","h",1,652,2,"B1","Label","A_Saldie",2
"640",28,16,"f","f",1,634,2,"A2","Label","A_Saldie",2
"641",28,17,"f","f",1,750,2,"A4","Label","A_Saldie",2
"642",28,18,"f","f",1,1385,2,"A5","Label","A_Saldie",2
"643",28,19,"h","h",1,462,2,"B2","Label","A_Saldie",2
"644",28,20,"h","h",1,623,2,"B5","Label","A_Saldie",2
"645",28,21,"f","f",1,662,2,"A6","Label","A_Saldie",2
"646",28,22,"h","h",1,743,2,"B4","Label","A_Saldie",2
"647",28,23,"f","f",1,494,2,"A1","Label","A_Saldie",2
"648",28,24,"f","f",1,622,2,"A3","Label","A_Saldie",2
"649",28,253,"f","f",1,1408,0,"A4","Label","A_Saldie",2
"650",28,254,"f","f",1,541,0,"A3","Label","A_Saldie",2
"651",28,255,"h","h",1,499,0,"B3","Label","A_Saldie",2
"652",28,256,"h","h",1,545,0,"B4","Label","A_Saldie",2
"653",28,257,"h","h",1,525,0,"TestB1","Label","A_Saldie",2
"654",28,258,"h","h",1,423,0,"B6","Label","A_Saldie",2
"655",28,259,"f","f",1,552,0,"TestA1","Label","A_Saldie",2
"656",28,260,"h","h",1,492,0,"B5","Label","A_Saldie",2
"657",28,261,"f","f",1,654,0,"TestA2","Label","A_Saldie",2
"658",28,262,"f","f",1,786,0,"A5","Label","A_Saldie",2
"659",28,263,"h","h",1,944,0,"TestB2","Label","A_Saldie",2
"660",28,264,"f","f",1,611,0,"A6","Label","A_Saldie",2
"661",25,1,"h","f",0,818,1,"B2","Label","A_Gatoo",6
"662",25,2,"h","h",1,958,1,"B5","Label","A_Gatoo",6
"663",25,3,"f","h",0,541,1,"A6","Label","A_Gatoo",6
"664",25,4,"f","f",1,800,1,"A1","Label","A_Gatoo",6
"665",25,5,"f","f",1,660,1,"A3","Label","A_Gatoo",6
"666",25,6,"f","f",1,785,1,"A2","Label","A_Gatoo",6
"667",25,7,"h","h",1,940,1,"B1","Label","A_Gatoo",6
"668",25,8,"h","f",0,579,1,"B3","Label","A_Gatoo",6
"669",25,9,"h","f",0,958,1,"B6","Label","A_Gatoo",6
"670",25,10,"f","h",0,1235,1,"A4","Label","A_Gatoo",6
"671",25,11,"f","f",1,810,1,"A5","Label","A_Gatoo",6
"672",25,12,"h","h",1,593,1,"B4","Label","A_Gatoo",6
"673",25,13,"f","h",0,647,2,"A3","Label","A_Gatoo",6
"674",25,14,"h","f",0,944,2,"B3","Label","A_Gatoo",6
"675",25,15,"h","h",1,736,2,"B4","Label","A_Gatoo",6
"676",25,16,"f","h",0,702,2,"A6","Label","A_Gatoo",6
"677",25,17,"f","f",1,777,2,"A5","Label","A_Gatoo",6
"678",25,18,"f","h",0,654,2,"A4","Label","A_Gatoo",6
"679",25,19,"h","f",0,758,2,"B5","Label","A_Gatoo",6
"680",25,20,"h","h",1,745,2,"B2","Label","A_Gatoo",6
"681",25,21,"f","f",1,1156,2,"A2","Label","A_Gatoo",6
"682",25,22,"h","f",0,984,2,"B6","Label","A_Gatoo",6
"683",25,23,"h","h",1,1288,2,"B1","Label","A_Gatoo",6
"684",25,24,"f","h",0,938,2,"A1","Label","A_Gatoo",6
"685",25,25,"h","h",1,643,3,"B3","Label","A_Gatoo",6
"686",25,26,"f","f",1,867,3,"A1","Label","A_Gatoo",6
"687",25,27,"f","h",0,952,3,"A3","Label","A_Gatoo",6
"688",25,28,"h","h",1,1134,3,"B6","Label","A_Gatoo",6
"689",25,29,"h","f",0,672,3,"B5","Label","A_Gatoo",6
"690",25,30,"f","f",1,1268,3,"A5","Label","A_Gatoo",6
"691",25,31,"h","h",1,875,3,"B1","Label","A_Gatoo",6
"692",25,32,"f","f",1,751,3,"A2","Label","A_Gatoo",6
"693",25,33,"f","h",0,815,3,"A4","Label","A_Gatoo",6
"694",25,34,"f","f",1,1027,3,"A6","Label","A_Gatoo",6
"695",25,35,"h","f",0,1220,3,"B4","Label","A_Gatoo",6
"696",25,36,"h","h",1,1214,3,"B2","Label","A_Gatoo",6
"697",25,37,"f","h",0,458,4,"A1","Label","A_Gatoo",6
"698",25,38,"f","f",1,1604,4,"A2","Label","A_Gatoo",6
"699",25,39,"h","h",1,960,4,"B2","Label","A_Gatoo",6
"700",25,40,"f","f",1,466,4,"A6","Label","A_Gatoo",6
"701",25,41,"h","h",1,602,4,"B3","Label","A_Gatoo",6
"702",25,42,"h","h",1,564,4,"B1","Label","A_Gatoo",6
"703",25,43,"h","h",1,530,4,"B6","Label","A_Gatoo",6
"704",25,44,"f","f",1,382,4,"A4","Label","A_Gatoo",6
"705",25,45,"f","f",1,379,4,"A3","Label","A_Gatoo",6
"706",25,46,"f","f",1,607,4,"A5","Label","A_Gatoo",6
"707",25,47,"h","h",1,431,4,"B5","Label","A_Gatoo",6
"708",25,48,"h","h",1,371,4,"B4","Label","A_Gatoo",6
"709",25,49,"f","f",1,463,5,"A2","Label","A_Gatoo",6
"710",25,50,"h","f",0,480,5,"B5","Label","A_Gatoo",6
"711",25,51,"f","f",1,446,5,"A6","Label","A_Gatoo",6
"712",25,52,"f","f",1,591,5,"A4","Label","A_Gatoo",6
"713",25,53,"f","f",1,530,5,"A5","Label","A_Gatoo",6
"714",25,54,"h","h",1,508,5,"B4","Label","A_Gatoo",6
"715",25,55,"h","h",1,433,5,"B2","Label","A_Gatoo",6
"716",25,56,"h","h",1,440,5,"B1","Label","A_Gatoo",6
"717",25,57,"f","f",1,524,5,"A3","Label","A_Gatoo",6
"718",25,58,"h","h",1,470,5,"B3","Label","A_Gatoo",6
"719",25,59,"f","f",1,406,5,"A1","Label","A_Gatoo",6
"720",25,60,"h","h",1,580,5,"B6","Label","A_Gatoo",6
"721",25,61,"h","h",1,651,6,"B5","Label","A_Gatoo",6
"722",25,62,"h","h",1,447,6,"B3","Label","A_Gatoo",6
"723",25,63,"h","h",1,477,6,"B6","Label","A_Gatoo",6
"724",25,64,"f","f",1,528,6,"A5","Label","A_Gatoo",6
"725",25,65,"f","f",1,495,6,"A4","Label","A_Gatoo",6
"726",25,66,"h","h",1,408,6,"B1","Label","A_Gatoo",6
"727",25,67,"h","h",1,620,6,"B4","Label","A_Gatoo",6
"728",25,68,"f","f",1,505,6,"A6","Label","A_Gatoo",6
"729",25,69,"f","f",1,352,6,"A3","Label","A_Gatoo",6
"730",25,70,"f","f",1,391,6,"A1","Label","A_Gatoo",6
"731",25,71,"h","h",1,466,6,"B2","Label","A_Gatoo",6
"732",25,72,"f","f",1,594,6,"A2","Label","A_Gatoo",6
"733",25,253,"f","f",1,529,0,"A3","Label","A_Gatoo",6
"734",25,254,"h","h",1,431,0,"B5","Label","A_Gatoo",6
"735",25,255,"h","h",1,536,0,"TestB2","Label","A_Gatoo",6
"736",25,256,"h","h",1,514,0,"B3","Label","A_Gatoo",6
"737",25,257,"f","f",1,316,0,"A6","Label","A_Gatoo",6
"738",25,258,"f","f",1,390,0,"A4","Label","A_Gatoo",6
"739",25,259,"f","f",1,458,0,"TestA2","Label","A_Gatoo",6
"740",25,260,"f","f",1,481,0,"A5","Label","A_Gatoo",6
"741",25,261,"h","h",1,470,0,"B6","Label","A_Gatoo",6
"742",25,262,"h","h",1,438,0,"TestB1","Label","A_Gatoo",6
"743",25,263,"h","h",1,362,0,"B4","Label","A_Gatoo",6
"744",25,264,"f","f",1,424,0,"TestA1","Label","A_Gatoo",6
"745",29,1,"f","f",1,2279,1,"A1","Label","A_Gatoo",3
"746",29,2,"f","h",0,1932,1,"A3","Label","A_Gatoo",3
"747",29,3,"h","h",1,2112,1,"B2","Label","A_Gatoo",3
"748",29,4,"h","h",1,816,1,"B1","Label","A_Gatoo",3
"749",29,5,"h","h",1,1345,1,"B3","Label","A_Gatoo",3
"750",29,6,"f","f",1,855,1,"A6","Label","A_Gatoo",3
"751",29,7,"h","h",1,719,1,"B6","Label","A_Gatoo",3
"752",29,8,"f","f",1,633,1,"A2","Label","A_Gatoo",3
"753",29,9,"h","h",1,493,1,"B4","Label","A_Gatoo",3
"754",29,10,"h","f",0,580,1,"B5","Label","A_Gatoo",3
"755",29,11,"f","f",1,1013,1,"A4","Label","A_Gatoo",3
"756",29,12,"f","f",1,1078,1,"A5","Label","A_Gatoo",3
"757",29,13,"f","f",1,867,2,"A6","Label","A_Gatoo",3
"758",29,14,"f","f",1,906,2,"A2","Label","A_Gatoo",3
"759",29,15,"f","h",0,757,2,"A5","Label","A_Gatoo",3
"760",29,16,"h","h",1,775,2,"B3","Label","A_Gatoo",3
"761",29,17,"f","f",1,661,2,"A1","Label","A_Gatoo",3
"762",29,18,"h","h",1,741,2,"B5","Label","A_Gatoo",3
"763",29,19,"h","h",1,969,2,"B6","Label","A_Gatoo",3
"764",29,20,"h","h",1,737,2,"B4","Label","A_Gatoo",3
"765",29,21,"h","h",1,810,2,"B2","Label","A_Gatoo",3
"766",29,22,"f","f",1,715,2,"A4","Label","A_Gatoo",3
"767",29,23,"h","h",1,728,2,"B1","Label","A_Gatoo",3
"768",29,24,"f","f",1,686,2,"A3","Label","A_Gatoo",3
"769",29,25,"f","f",1,711,3,"A3","Label","A_Gatoo",3
"770",29,26,"f","f",1,664,3,"A2","Label","A_Gatoo",3
"771",29,27,"h","h",1,628,3,"B4","Label","A_Gatoo",3
"772",29,28,"h","h",1,642,3,"B3","Label","A_Gatoo",3
"773",29,29,"h","h",1,508,3,"B5","Label","A_Gatoo",3
"774",29,30,"f","f",1,733,3,"A5","Label","A_Gatoo",3
"775",29,31,"h","h",1,745,3,"B1","Label","A_Gatoo",3
"776",29,32,"f","f",1,687,3,"A1","Label","A_Gatoo",3
"777",29,33,"h","h",1,656,3,"B2","Label","A_Gatoo",3
"778",29,34,"h","h",1,704,3,"B6","Label","A_Gatoo",3
"779",29,35,"f","f",1,642,3,"A6","Label","A_Gatoo",3
"780",29,36,"f","f",1,602,3,"A4","Label","A_Gatoo",3
"781",29,253,"f","f",1,826,0,"A6","Label","A_Gatoo",3
"782",29,254,"h","h",1,652,0,"B3","Label","A_Gatoo",3
"783",29,255,"f","f",1,593,0,"A5","Label","A_Gatoo",3
"784",29,256,"f","f",1,609,0,"A3","Label","A_Gatoo",3
"785",29,257,"h","h",1,677,0,"TestB2","Label","A_Gatoo",3
"786",29,258,"h","h",1,524,0,"TestB1","Label","A_Gatoo",3
"787",29,259,"f","f",1,692,0,"TestA1","Label","A_Gatoo",3
"788",29,260,"h","h",1,638,0,"B6","Label","A_Gatoo",3
"789",29,261,"h","h",1,673,0,"B5","Label","A_Gatoo",3
"790",29,262,"f","f",1,520,0,"TestA2","Label","A_Gatoo",3
"791",29,263,"f","f",1,589,0,"A4","Label","A_Gatoo",3
"792",29,264,"h","h",1,575,0,"B4","Label","A_Gatoo",3
"793",27,1,"f","h",0,4688,1,"A2","NoLabel","NoName",5
"794",27,2,"f","f",1,2937,1,"A5","NoLabel","NoName",5
"795",27,3,"h","f",0,2962,1,"B6","NoLabel","NoName",5
"796",27,4,"h","h",1,4084,1,"B2","NoLabel","NoName",5
"797",27,5,"h","h",1,1875,1,"B1","NoLabel","NoName",5
"798",27,6,"h","h",1,1708,1,"B3","NoLabel","NoName",5
"799",27,7,"f","h",0,3051,1,"A3","NoLabel","NoName",5
"800",27,8,"h","f",0,2598,1,"B5","NoLabel","NoName",5
"801",27,9,"f","f",1,1641,1,"A6","NoLabel","NoName",5
"802",27,10,"f","f",1,2317,1,"A4","NoLabel","NoName",5
"803",27,11,"h","f",0,3036,1,"B4","NoLabel","NoName",5
"804",27,12,"f","h",0,1408,1,"A1","NoLabel","NoName",5
"805",27,13,"f","h",0,1659,2,"A2","NoLabel","NoName",5
"806",27,14,"h","f",0,1358,2,"B6","NoLabel","NoName",5
"807",27,15,"f","f",1,2059,2,"A1","NoLabel","NoName",5
"808",27,16,"h","f",0,1718,2,"B5","NoLabel","NoName",5
"809",27,17,"h","h",1,2447,2,"B3","NoLabel","NoName",5
"810",27,18,"f","h",0,3632,2,"A3","NoLabel","NoName",5
"811",27,19,"h","h",1,1574,2,"B2","NoLabel","NoName",5
"812",27,20,"f","f",1,3735,2,"A6","NoLabel","NoName",5
"813",27,21,"f","f",1,2366,2,"A5","NoLabel","NoName",5
"814",27,22,"h","h",1,2598,2,"B1","NoLabel","NoName",5
"815",27,23,"h","f",0,1816,2,"B4","NoLabel","NoName",5
"816",27,24,"f","f",1,2161,2,"A4","NoLabel","NoName",5
"817",27,25,"h","h",1,1566,3,"B4","NoLabel","NoName",5
"818",27,26,"h","h",1,3747,3,"B1","NoLabel","NoName",5
"819",27,27,"h","h",1,2209,3,"B3","NoLabel","NoName",5
"820",27,28,"f","f",1,1702,3,"A1","NoLabel","NoName",5
"821",27,29,"f","f",1,1642,3,"A4","NoLabel","NoName",5
"822",27,30,"h","h",1,1665,3,"B5","NoLabel","NoName",5
"823",27,31,"f","f",1,2308,3,"A2","NoLabel","NoName",5
"824",27,32,"f","h",0,4220,3,"A3","NoLabel","NoName",5
"825",27,33,"h","h",1,1500,3,"B2","NoLabel","NoName",5
"826",27,34,"h","h",1,2135,3,"B6","NoLabel","NoName",5
"827",27,35,"f","f",1,614,3,"A5","NoLabel","NoName",5
"828",27,36,"f","f",1,1761,3,"A6","NoLabel","NoName",5
"829",27,37,"h","h",1,1020,4,"B1","NoLabel","NoName",5
"830",27,38,"h","h",1,1814,4,"B5","NoLabel","NoName",5
"831",27,39,"h","h",1,853,4,"B2","NoLabel","NoName",5
"832",27,40,"h","h",1,757,4,"B6","NoLabel","NoName",5
"833",27,41,"f","f",1,1198,4,"A5","NoLabel","NoName",5
"834",27,42,"h","h",1,2260,4,"B4","NoLabel","NoName",5
"835",27,43,"f","f",1,2687,4,"A1","NoLabel","NoName",5
"836",27,44,"f","f",1,1286,4,"A2","NoLabel","NoName",5
"837",27,45,"h","h",1,803,4,"B3","NoLabel","NoName",5
"838",27,46,"f","f",1,1350,4,"A6","NoLabel","NoName",5
"839",27,47,"f","f",1,1207,4,"A4","NoLabel","NoName",5
"840",27,48,"f","h",0,2577,4,"A3","NoLabel","NoName",5
"841",27,49,"h","h",1,957,5,"B2","NoLabel","NoName",5
"842",27,50,"h","h",1,628,5,"B4","NoLabel","NoName",5
"843",27,51,"h","h",1,705,5,"B3","NoLabel","NoName",5
"844",27,52,"f","f",1,1983,5,"A5","NoLabel","NoName",5
"845",27,53,"h","h",1,724,5,"B1","NoLabel","NoName",5
"846",27,54,"h","h",1,740,5,"B5","NoLabel","NoName",5
"847",27,55,"f","f",1,431,5,"A1","NoLabel","NoName",5
"848",27,56,"h","h",1,566,5,"B6","NoLabel","NoName",5
"849",27,57,"f","f",1,972,5,"A2","NoLabel","NoName",5
"850",27,58,"f","f",1,1051,5,"A6","NoLabel","NoName",5
"851",27,59,"f","f",1,759,5,"A3","NoLabel","NoName",5
"852",27,60,"f","f",1,686,5,"A4","NoLabel","NoName",5
"853",27,253,"f","f",1,806,0,"A4","NoLabel","NoName",5
"854",27,254,"f","f",1,531,0,"A3","NoLabel","NoName",5
"855",27,255,"h","h",1,603,0,"TestB1","NoLabel","NoName",5
"856",27,256,"f","f",1,513,0,"A6","NoLabel","NoName",5
"857",27,257,"h","h",1,794,0,"B6","NoLabel","NoName",5
"858",27,258,"h","h",1,665,0,"TestB2","NoLabel","NoName",5
"859",27,259,"h","h",1,701,0,"B4","NoLabel","NoName",5
"860",27,260,"h","h",1,535,0,"B3","NoLabel","NoName",5
"861",27,261,"f","f",1,760,0,"A5","NoLabel","NoName",5
"862",27,262,"h","h",1,487,0,"B5","NoLabel","NoName",5
"863",27,263,"f","h",0,1185,0,"TestA1","NoLabel","NoName",5
"864",27,264,"f","f",1,683,0,"TestA2","NoLabel","NoName",5
"865",30,1,"f","f",1,2408,1,"A6","NoLabel","NoName",3
"866",30,2,"f","h",0,1317,1,"A4","NoLabel","NoName",3
"867",30,3,"h","f",0,1202,1,"B5","NoLabel","NoName",3
"868",30,4,"h","h",1,1330,1,"B4","NoLabel","NoName",3
"869",30,5,"h","f",0,1656,1,"B1","NoLabel","NoName",3
"870",30,6,"h","f",0,2273,1,"B2","NoLabel","NoName",3
"871",30,7,"h","h",1,1157,1,"B3","NoLabel","NoName",3
"872",30,8,"f","f",1,1784,1,"A5","NoLabel","NoName",3
"873",30,9,"f","h",0,844,1,"A1","NoLabel","NoName",3
"874",30,10,"f","f",1,2083,1,"A3","NoLabel","NoName",3
"875",30,11,"h","h",1,1100,1,"B6","NoLabel","NoName",3
"876",30,12,"f","f",1,1038,1,"A2","NoLabel","NoName",3
"877",30,13,"h","f",0,1619,2,"B2","NoLabel","NoName",3
"878",30,14,"f","h",0,786,2,"A6","NoLabel","NoName",3
"879",30,15,"f","f",1,2146,2,"A5","NoLabel","NoName",3
"880",30,16,"h","h",1,889,2,"B3","NoLabel","NoName",3
"881",30,17,"f","h",0,1231,2,"A4","NoLabel","NoName",3
"882",30,18,"h","f",0,1980,2,"B6","NoLabel","NoName",3
"883",30,19,"f","f",1,1230,2,"A1","NoLabel","NoName",3
"884",30,20,"h","h",1,1133,2,"B4","NoLabel","NoName",3
"885",30,21,"h","h",1,691,2,"B1","NoLabel","NoName",3
"886",30,22,"f","f",1,671,2,"A3","NoLabel","NoName",3
"887",30,23,"f","h",0,741,2,"A2","NoLabel","NoName",3
"888",30,24,"h","h",1,1096,2,"B5","NoLabel","NoName",3
"889",30,25,"h","h",1,802,3,"B2","NoLabel","NoName",3
"890",30,26,"h","h",1,820,3,"B3","NoLabel","NoName",3
"891",30,27,"f","f",1,705,3,"A1","NoLabel","NoName",3
"892",30,28,"h","h",1,649,3,"B5","NoLabel","NoName",3
"893",30,29,"f","f",1,1218,3,"A6","NoLabel","NoName",3
"894",30,30,"f","f",1,599,3,"A2","NoLabel","NoName",3
"895",30,31,"f","f",1,735,3,"A4","NoLabel","NoName",3
"896",30,32,"h","h",1,499,3,"B1","NoLabel","NoName",3
"897",30,33,"h","h",1,559,3,"B6","NoLabel","NoName",3
"898",30,34,"h","h",1,706,3,"B4","NoLabel","NoName",3
"899",30,35,"f","f",1,533,3,"A3","NoLabel","NoName",3
"900",30,36,"f","f",1,868,3,"A5","NoLabel","NoName",3
"901",30,253,"f","f",1,798,0,"A4","NoLabel","NoName",3
"902",30,254,"h","h",1,649,0,"B5","NoLabel","NoName",3
"903",30,255,"h","h",1,1053,0,"B3","NoLabel","NoName",3
"904",30,256,"h","h",1,604,0,"B6","NoLabel","NoName",3
"905",30,257,"h","h",1,458,0,"B4","NoLabel","NoName",3
"906",30,258,"f","f",1,517,0,"TestA1","NoLabel","NoName",3
"907",30,259,"h","h",1,878,0,"TestB2","NoLabel","NoName",3
"908",30,260,"f","f",1,668,0,"A6","NoLabel","NoName",3
"909",30,261,"f","f",1,670,0,"A5","NoLabel","NoName",3
"910",30,262,"f","f",1,655,0,"TestA2","NoLabel","NoName",3
"911",30,263,"f","f",1,542,0,"A3","NoLabel","NoName",3
"912",30,264,"h","h",1,522,0,"TestB1","NoLabel","NoName",3
"913",3,1,"f","f",1,1430,1,"A2","NoLabel","NoName",4
"914",3,2,"h","f",0,1300,1,"B1","NoLabel","NoName",4
"915",3,3,"h","f",0,2412,1,"B5","NoLabel","NoName",4
"916",3,4,"f","f",1,1581,1,"A1","NoLabel","NoName",4
"917",3,5,"h","h",1,2552,1,"B2","NoLabel","NoName",4
"918",3,6,"h","h",1,1786,1,"B6","NoLabel","NoName",4
"919",3,7,"f","h",0,1794,1,"A5","NoLabel","NoName",4
"920",3,8,"f","f",1,4130,1,"A6","NoLabel","NoName",4
"921",3,9,"f","f",1,1849,1,"A3","NoLabel","NoName",4
"922",3,10,"h","h",1,1090,1,"B4","NoLabel","NoName",4
"923",3,11,"h","h",1,1531,1,"B3","NoLabel","NoName",4
"924",3,12,"f","f",1,4090,1,"A4","NoLabel","NoName",4
"925",3,13,"h","h",1,4588,2,"B1","NoLabel","NoName",4
"926",3,14,"f","f",1,966,2,"A6","NoLabel","NoName",4
"927",3,15,"f","f",1,2693,2,"A2","NoLabel","NoName",4
"928",3,16,"f","h",0,1173,2,"A4","NoLabel","NoName",4
"929",3,17,"h","h",1,2321,2,"B4","NoLabel","NoName",4
"930",3,18,"f","h",0,1146,2,"A3","NoLabel","NoName",4
"931",3,19,"h","h",1,1251,2,"B3","NoLabel","NoName",4
"932",3,20,"h","h",1,1239,2,"B2","NoLabel","NoName",4
"933",3,21,"f","f",1,1458,2,"A1","NoLabel","NoName",4
"934",3,22,"f","f",1,2694,2,"A5","NoLabel","NoName",4
"935",3,23,"h","h",1,1021,2,"B5","NoLabel","NoName",4
"936",3,24,"h","h",1,1056,2,"B6","NoLabel","NoName",4
"937",3,25,"h","h",1,855,3,"B3","NoLabel","NoName",4
"938",3,26,"f","f",1,1425,3,"A1","NoLabel","NoName",4
"939",3,27,"h","h",1,943,3,"B4","NoLabel","NoName",4
"940",3,28,"h","h",1,1105,3,"B5","NoLabel","NoName",4
"941",3,29,"h","h",1,914,3,"B1","NoLabel","NoName",4
"942",3,30,"f","h",0,2323,3,"A4","NoLabel","NoName",4
"943",3,31,"f","f",1,1215,3,"A3","NoLabel","NoName",4
"944",3,32,"h","h",1,2098,3,"B2","NoLabel","NoName",4
"945",3,33,"f","f",1,1317,3,"A5","NoLabel","NoName",4
"946",3,34,"h","h",1,875,3,"B6","NoLabel","NoName",4
"947",3,35,"f","f",1,1159,3,"A6","NoLabel","NoName",4
"948",3,36,"f","f",1,1022,3,"A2","NoLabel","NoName",4
"949",3,37,"h","h",1,974,4,"B6","NoLabel","NoName",4
"950",3,38,"f","f",1,1202,4,"A5","NoLabel","NoName",4
"951",3,39,"f","f",1,1531,4,"A4","NoLabel","NoName",4
"952",3,40,"f","f",1,877,4,"A1","NoLabel","NoName",4
"953",3,41,"f","f",1,1051,4,"A2","NoLabel","NoName",4
"954",3,42,"h","h",1,2849,4,"B1","NoLabel","NoName",4
"955",3,43,"h","h",1,1782,4,"B3","NoLabel","NoName",4
"956",3,44,"h","h",1,1070,4,"B4","NoLabel","NoName",4
"957",3,45,"f","f",1,928,4,"A6","NoLabel","NoName",4
"958",3,46,"h","h",1,1052,4,"B2","NoLabel","NoName",4
"959",3,47,"h","h",1,1082,4,"B5","NoLabel","NoName",4
"960",3,48,"f","f",1,1039,4,"A3","NoLabel","NoName",4
"961",3,253,"f","f",1,2030,0,"TestA1","NoLabel","NoName",4
"962",3,254,"h","h",1,830,0,"B5","NoLabel","NoName",4
"963",3,255,"h","h",1,936,0,"B6","NoLabel","NoName",4
"964",3,256,"f","f",1,850,0,"A4","NoLabel","NoName",4
"965",3,257,"h","h",1,862,0,"B3","NoLabel","NoName",4
"966",3,258,"h","h",1,2411,0,"TestB2","NoLabel","NoName",4
"967",3,259,"h","h",1,981,0,"B4","NoLabel","NoName",4
"968",3,260,"f","f",1,1497,0,"A5","NoLabel","NoName",4
"969",3,261,"f","f",1,1575,0,"A3","NoLabel","NoName",4
"970",3,262,"f","f",1,1024,0,"TestA2","NoLabel","NoName",4
"971",3,263,"f","f",1,798,0,"A6","NoLabel","NoName",4
"972",3,264,"h","h",1,745,0,"TestB1","NoLabel","NoName",4
"973",31,1,"h","h",1,3350,1,"B5","NoLabel","NoName",2
"974",31,2,"h","h",1,2900,1,"B4","NoLabel","NoName",2
"975",31,3,"f","f",1,6405,1,"A5","NoLabel","NoName",2
"976",31,4,"f","f",1,3867,1,"A6","NoLabel","NoName",2
"977",31,5,"f","h",0,3043,1,"A1","NoLabel","NoName",2
"978",31,6,"f","h",0,3835,1,"A4","NoLabel","NoName",2
"979",31,7,"h","h",1,2225,1,"B3","NoLabel","NoName",2
"980",31,8,"f","h",0,2162,1,"A2","NoLabel","NoName",2
"981",31,9,"h","f",0,1270,1,"B1","NoLabel","NoName",2
"982",31,10,"h","h",1,4393,1,"B6","NoLabel","NoName",2
"983",31,11,"f","h",0,2293,1,"A3","NoLabel","NoName",2
"984",31,12,"h","f",0,1349,1,"B2","NoLabel","NoName",2
"985",31,13,"f","f",1,1704,2,"A2","NoLabel","NoName",2
"986",31,14,"h","h",1,1235,2,"B1","NoLabel","NoName",2
"987",31,15,"f","f",1,1393,2,"A3","NoLabel","NoName",2
"988",31,16,"h","h",1,1774,2,"B3","NoLabel","NoName",2
"989",31,17,"h","h",1,743,2,"B5","NoLabel","NoName",2
"990",31,18,"h","h",1,622,2,"B6","NoLabel","NoName",2
"991",31,19,"f","f",1,1688,2,"A4","NoLabel","NoName",2
"992",31,20,"h","h",1,775,2,"B4","NoLabel","NoName",2
"993",31,21,"h","h",1,828,2,"B2","NoLabel","NoName",2
"994",31,22,"f","f",1,990,2,"A1","NoLabel","NoName",2
"995",31,23,"f","f",1,1249,2,"A6","NoLabel","NoName",2
"996",31,24,"f","f",1,1197,2,"A5","NoLabel","NoName",2
"997",31,253,"f","h",0,1681,0,"TestA1","NoLabel","NoName",2
"998",31,254,"h","h",1,676,0,"B6","NoLabel","NoName",2
"999",31,255,"f","f",1,683,0,"A4","NoLabel","NoName",2
"1000",31,256,"h","h",1,961,0,"B4","NoLabel","NoName",2
"1001",31,257,"h","h",1,673,0,"B5","NoLabel","NoName",2
"1002",31,258,"f","f",1,775,0,"A3","NoLabel","NoName",2
"1003",31,259,"h","h",1,1375,0,"TestB2","NoLabel","NoName",2
"1004",31,260,"f","f",1,797,0,"A6","NoLabel","NoName",2
"1005",31,261,"h","h",1,633,0,"B3","NoLabel","NoName",2
"1006",31,262,"f","f",1,976,0,"TestA2","NoLabel","NoName",2
"1007",31,263,"f","f",1,1074,0,"A5","NoLabel","NoName",2
"1008",31,264,"h","h",1,739,0,"TestB1","NoLabel","NoName",2
"1009",32,1,"h","f",0,1706,1,"B1","Label","A_Saldie",4
"1010",32,2,"h","h",1,1063,1,"B4","Label","A_Saldie",4
"1011",32,3,"h","h",1,1115,1,"B6","Label","A_Saldie",4
"1012",32,4,"f","h",0,600,1,"A2","Label","A_Saldie",4
"1013",32,5,"h","f",0,719,1,"B3","Label","A_Saldie",4
"1014",32,6,"f","h",0,1022,1,"A1","Label","A_Saldie",4
"1015",32,7,"f","h",0,1427,1,"A3","Label","A_Saldie",4
"1016",32,8,"h","h",1,1195,1,"B5","Label","A_Saldie",4
"1017",32,9,"f","f",1,1323,1,"A4","Label","A_Saldie",4
"1018",32,10,"f","h",0,1493,1,"A5","Label","A_Saldie",4
"1019",32,11,"h","f",0,1380,1,"B2","Label","A_Saldie",4
"1020",32,12,"f","f",1,1522,1,"A6","Label","A_Saldie",4
"1021",32,13,"h","h",1,1613,2,"B5","Label","A_Saldie",4
"1022",32,14,"h","f",0,1048,2,"B1","Label","A_Saldie",4
"1023",32,15,"f","h",0,1228,2,"A4","Label","A_Saldie",4
"1024",32,16,"f","f",1,2010,2,"A1","Label","A_Saldie",4
"1025",32,17,"f","h",0,979,2,"A6","Label","A_Saldie",4
"1026",32,18,"f","f",1,1781,2,"A2","Label","A_Saldie",4
"1027",32,19,"h","f",0,1054,2,"B3","Label","A_Saldie",4
"1028",32,20,"f","f",1,1127,2,"A3","Label","A_Saldie",4
"1029",32,21,"f","h",0,1167,2,"A5","Label","A_Saldie",4
"1030",32,22,"h","f",0,2061,2,"B6","Label","A_Saldie",4
"1031",32,23,"h","h",1,1221,2,"B4","Label","A_Saldie",4
"1032",32,24,"h","f",0,970,2,"B2","Label","A_Saldie",4
"1033",32,25,"f","f",1,3080,3,"A4","Label","A_Saldie",4
"1034",32,26,"f","f",1,1069,3,"A3","Label","A_Saldie",4
"1035",32,27,"f","h",0,846,3,"A1","Label","A_Saldie",4
"1036",32,28,"f","h",0,1489,3,"A6","Label","A_Saldie",4
"1037",32,29,"f","h",0,921,3,"A5","Label","A_Saldie",4
"1038",32,30,"h","h",1,997,3,"B2","Label","A_Saldie",4
"1039",32,31,"h","h",1,572,3,"B5","Label","A_Saldie",4
"1040",32,32,"h","h",1,470,3,"B3","Label","A_Saldie",4
"1041",32,33,"h","h",1,534,3,"B4","Label","A_Saldie",4
"1042",32,34,"h","h",1,581,3,"B1","Label","A_Saldie",4
"1043",32,35,"f","f",1,540,3,"A2","Label","A_Saldie",4
"1044",32,36,"h","h",1,724,3,"B6","Label","A_Saldie",4
"1045",32,37,"h","h",1,539,4,"B1","Label","A_Saldie",4
"1046",32,38,"h","h",1,662,4,"B3","Label","A_Saldie",4
"1047",32,39,"f","f",1,559,4,"A2","Label","A_Saldie",4
"1048",32,40,"f","f",1,650,4,"A3","Label","A_Saldie",4
"1049",32,41,"f","f",1,812,4,"A1","Label","A_Saldie",4
"1050",32,42,"f","f",1,685,4,"A4","Label","A_Saldie",4
"1051",32,43,"f","f",1,1497,4,"A5","Label","A_Saldie",4
"1052",32,44,"h","h",1,668,4,"B5","Label","A_Saldie",4
"1053",32,45,"f","f",1,603,4,"A6","Label","A_Saldie",4
"1054",32,46,"h","h",1,782,4,"B2","Label","A_Saldie",4
"1055",32,47,"h","h",1,579,4,"B6","Label","A_Saldie",4
"1056",32,48,"h","h",1,466,4,"B4","Label","A_Saldie",4
"1057",32,253,"f","f",1,883,0,"TestA2","Label","A_Saldie",4
"1058",32,254,"f","f",1,576,0,"A3","Label","A_Saldie",4
"1059",32,255,"f","f",1,442,0,"A5","Label","A_Saldie",4
"1060",32,256,"h","h",1,536,0,"B3","Label","A_Saldie",4
"1061",32,257,"h","h",1,645,0,"TestB1","Label","A_Saldie",4
"1062",32,258,"f","f",1,428,0,"TestA1","Label","A_Saldie",4
"1063",32,259,"f","f",1,615,0,"A6","Label","A_Saldie",4
"1064",32,260,"h","h",1,510,0,"B4","Label","A_Saldie",4
"1065",32,261,"h","h",1,608,0,"B6","Label","A_Saldie",4
"1066",32,262,"h","h",1,445,0,"B5","Label","A_Saldie",4
"1067",32,263,"f","f",1,578,0,"A4","Label","A_Saldie",4
"1068",32,264,"h","h",1,483,0,"TestB2","Label","A_Saldie",4
"1069",34,1,"f","f",1,2809,1,"A1","NoLabel","NoName",3
"1070",34,2,"f","f",1,1313,1,"A3","NoLabel","NoName",3
"1071",34,3,"h","h",1,793,1,"B2","NoLabel","NoName",3
"1072",34,4,"f","f",1,1059,1,"A2","NoLabel","NoName",3
"1073",34,5,"f","h",0,685,1,"A6","NoLabel","NoName",3
"1074",34,6,"f","f",1,336,1,"A4","NoLabel","NoName",3
"1075",34,7,"h","h",1,367,1,"B5","NoLabel","NoName",3
"1076",34,8,"h","f",0,348,1,"B3","NoLabel","NoName",3
"1077",34,9,"h","f",0,361,1,"B4","NoLabel","NoName",3
"1078",34,10,"f","h",0,49,1,"A5","NoLabel","NoName",3
"1079",34,11,"h","h",1,298,1,"B1","NoLabel","NoName",3
"1080",34,12,"h","f",0,785,1,"B6","NoLabel","NoName",3
"1081",34,13,"f","h",0,375,2,"A4","NoLabel","NoName",3
"1082",34,14,"h","f",0,471,2,"B6","NoLabel","NoName",3
"1083",34,15,"h","h",1,345,2,"B4","NoLabel","NoName",3
"1084",34,16,"f","h",0,667,2,"A3","NoLabel","NoName",3
"1085",34,17,"h","f",0,390,2,"B1","NoLabel","NoName",3
"1086",34,18,"h","h",1,337,2,"B5","NoLabel","NoName",3
"1087",34,19,"f","f",1,714,2,"A6","NoLabel","NoName",3
"1088",34,20,"f","f",1,679,2,"A5","NoLabel","NoName",3
"1089",34,21,"h","h",1,485,2,"B3","NoLabel","NoName",3
"1090",34,22,"f","f",1,409,2,"A1","NoLabel","NoName",3
"1091",34,23,"h","h",1,515,2,"B2","NoLabel","NoName",3
"1092",34,24,"f","f",1,488,2,"A2","NoLabel","NoName",3
"1093",34,25,"f","f",1,489,3,"A3","NoLabel","NoName",3
"1094",34,26,"f","f",1,451,3,"A2","NoLabel","NoName",3
"1095",34,27,"f","f",1,502,3,"A1","NoLabel","NoName",3
"1096",34,28,"h","h",1,487,3,"B1","NoLabel","NoName",3
"1097",34,29,"f","f",1,449,3,"A4","NoLabel","NoName",3
"1098",34,30,"f","f",1,467,3,"A6","NoLabel","NoName",3
"1099",34,31,"h","h",1,455,3,"B5","NoLabel","NoName",3
"1100",34,32,"f","f",1,450,3,"A5","NoLabel","NoName",3
"1101",34,33,"h","h",1,385,3,"B6","NoLabel","NoName",3
"1102",34,34,"h","h",1,668,3,"B3","NoLabel","NoName",3
"1103",34,35,"h","h",1,452,3,"B4","NoLabel","NoName",3
"1104",34,36,"h","h",1,475,3,"B2","NoLabel","NoName",3
"1105",34,253,"h","h",1,805,0,"B6","NoLabel","NoName",3
"1106",34,254,"h","h",1,487,0,"TestB2","NoLabel","NoName",3
"1107",34,255,"f","f",1,497,0,"A3","NoLabel","NoName",3
"1108",34,256,"h","h",1,451,0,"B5","NoLabel","NoName",3
"1109",34,257,"f","f",1,664,0,"A4","NoLabel","NoName",3
"1110",34,258,"f","f",1,435,0,"TestA2","NoLabel","NoName",3
"1111",34,259,"f","f",1,512,0,"A6","NoLabel","NoName",3
"1112",34,260,"h","h",1,450,0,"B4","NoLabel","NoName",3
"1113",34,261,"f","f",1,548,0,"TestA1","NoLabel","NoName",3
"1114",34,262,"h","h",1,490,0,"TestB1","NoLabel","NoName",3
"1115",34,263,"h","h",1,461,0,"B3","NoLabel","NoName",3
"1116",34,264,"f","f",1,428,0,"A5","NoLabel","NoName",3
"1117",33,1,"f","f",1,3206,1,"A4","Label","A_Gatoo",3
"1118",33,2,"f","f",1,1875,1,"A2","Label","A_Gatoo",3
"1119",33,3,"h","f",0,2818,1,"B5","Label","A_Gatoo",3
"1120",33,4,"h","f",0,1518,1,"B6","Label","A_Gatoo",3
"1121",33,5,"f","f",1,1273,1,"A1","Label","A_Gatoo",3
"1122",33,6,"f","f",1,1426,1,"A3","Label","A_Gatoo",3
"1123",33,7,"h","h",1,686,1,"B4","Label","A_Gatoo",3
"1124",33,8,"f","h",0,996,1,"A5","Label","A_Gatoo",3
"1125",33,9,"h","f",0,1400,1,"B2","Label","A_Gatoo",3
"1126",33,10,"h","h",1,1750,1,"B1","Label","A_Gatoo",3
"1127",33,11,"h","h",1,1083,1,"B3","Label","A_Gatoo",3
"1128",33,12,"f","h",0,1800,1,"A6","Label","A_Gatoo",3
"1129",33,13,"f","h",0,1359,2,"A5","Label","A_Gatoo",3
"1130",33,14,"h","h",1,999,2,"B3","Label","A_Gatoo",3
"1131",33,15,"f","f",1,1200,2,"A4","Label","A_Gatoo",3
"1132",33,16,"f","f",1,1128,2,"A1","Label","A_Gatoo",3
"1133",33,17,"f","f",1,701,2,"A6","Label","A_Gatoo",3
"1134",33,18,"h","h",1,811,2,"B6","Label","A_Gatoo",3
"1135",33,19,"f","f",1,1188,2,"A2","Label","A_Gatoo",3
"1136",33,20,"h","h",1,754,2,"B1","Label","A_Gatoo",3
"1137",33,21,"f","f",1,2008,2,"A3","Label","A_Gatoo",3
"1138",33,22,"h","h",1,618,2,"B4","Label","A_Gatoo",3
"1139",33,23,"h","h",1,790,2,"B5","Label","A_Gatoo",3
"1140",33,24,"h","h",1,778,2,"B2","Label","A_Gatoo",3
"1141",33,25,"h","h",1,921,3,"B4","Label","A_Gatoo",3
"1142",33,26,"h","h",1,836,3,"B1","Label","A_Gatoo",3
"1143",33,27,"f","f",1,1027,3,"A5","Label","A_Gatoo",3
"1144",33,28,"f","f",1,601,3,"A1","Label","A_Gatoo",3
"1145",33,29,"h","h",1,674,3,"B6","Label","A_Gatoo",3
"1146",33,30,"h","h",1,603,3,"B3","Label","A_Gatoo",3
"1147",33,31,"f","f",1,1039,3,"A4","Label","A_Gatoo",3
"1148",33,32,"h","h",1,860,3,"B5","Label","A_Gatoo",3
"1149",33,33,"h","h",1,633,3,"B2","Label","A_Gatoo",3
"1150",33,34,"f","f",1,805,3,"A2","Label","A_Gatoo",3
"1151",33,35,"f","f",1,661,3,"A6","Label","A_Gatoo",3
"1152",33,36,"f","f",1,1245,3,"A3","Label","A_Gatoo",3
"1153",33,253,"h","h",1,842,0,"TestB1","Label","A_Gatoo",3
"1154",33,254,"h","h",1,738,0,"TestB2","Label","A_Gatoo",3
"1155",33,255,"f","f",1,751,0,"TestA1","Label","A_Gatoo",3
"1156",33,256,"h","h",1,631,0,"B4","Label","A_Gatoo",3
"1157",33,257,"f","f",1,684,0,"A4","Label","A_Gatoo",3
"1158",33,258,"f","f",1,957,0,"A3","Label","A_Gatoo",3
"1159",33,259,"f","f",1,1104,0,"A6","Label","A_Gatoo",3
"1160",33,260,"h","h",1,778,0,"B5","Label","A_Gatoo",3
"1161",33,261,"h","h",1,817,0,"B3","Label","A_Gatoo",3
"1162",33,262,"f","f",1,1209,0,"TestA2","Label","A_Gatoo",3
"1163",33,263,"h","h",1,942,0,"B6","Label","A_Gatoo",3
"1164",33,264,"f","f",1,1453,0,"A5","Label","A_Gatoo",3
"1165",2,1,"h","f",0,2044,1,"B3","NoLabel","NoName",21
"1166",2,2,"f","f",1,1352,1,"A4","NoLabel","NoName",21
"1167",2,3,"h","f",0,1564,1,"B2","NoLabel","NoName",21
"1168",2,4,"f","f",1,1028,1,"A5","NoLabel","NoName",21
"1169",2,5,"h","h",1,840,1,"B5","NoLabel","NoName",21
"1170",2,6,"f","f",1,2250,1,"A1","NoLabel","NoName",21
"1171",2,7,"h","h",1,2295,1,"B6","NoLabel","NoName",21
"1172",2,8,"h","f",0,893,1,"B1","NoLabel","NoName",21
"1173",2,9,"h","f",0,1354,1,"B4","NoLabel","NoName",21
"1174",2,10,"f","h",0,1807,1,"A3","NoLabel","NoName",21
"1175",2,11,"f","f",1,933,1,"A2","NoLabel","NoName",21
"1176",2,12,"f","f",1,986,1,"A6","NoLabel","NoName",21
"1177",2,13,"f","f",1,2092,2,"A3","NoLabel","NoName",21
"1178",2,14,"f","h",0,1191,2,"A1","NoLabel","NoName",21
"1179",2,15,"f","f",1,875,2,"A4","NoLabel","NoName",21
"1180",2,16,"h","h",1,1786,2,"B5","NoLabel","NoName",21
"1181",2,17,"h","f",0,907,2,"B2","NoLabel","NoName",21
"1182",2,18,"h","h",1,1812,2,"B4","NoLabel","NoName",21
"1183",2,19,"h","f",0,3931,2,"B6","NoLabel","NoName",21
"1184",2,20,"h","h",1,979,2,"B1","NoLabel","NoName",21
"1185",2,21,"f","f",1,1878,2,"A5","NoLabel","NoName",21
"1186",2,22,"f","h",0,1496,2,"A2","NoLabel","NoName",21
"1187",2,23,"h","f",0,775,2,"B3","NoLabel","NoName",21
"1188",2,24,"f","h",0,564,2,"A6","NoLabel","NoName",21
"1189",2,25,"h","f",0,580,3,"B4","NoLabel","NoName",21
"1190",2,26,"h","f",0,389,3,"B1","NoLabel","NoName",21
"1191",2,27,"h","h",1,1121,3,"B5","NoLabel","NoName",21
"1192",2,28,"f","f",1,378,3,"A6","NoLabel","NoName",21
"1193",2,29,"h","f",0,688,3,"B3","NoLabel","NoName",21
"1194",2,30,"f","h",0,802,3,"A2","NoLabel","NoName",21
"1195",2,31,"h","f",0,629,3,"B6","NoLabel","NoName",21
"1196",2,32,"h","h",1,1309,3,"B2","NoLabel","NoName",21
"1197",2,33,"f","h",0,1188,3,"A3","NoLabel","NoName",21
"1198",2,34,"f","f",1,604,3,"A1","NoLabel","NoName",21
"1199",2,35,"f","f",1,708,3,"A4","NoLabel","NoName",21
"1200",2,36,"f","f",1,2110,3,"A5","NoLabel","NoName",21
"1201",2,37,"f","f",1,327,4,"A2","NoLabel","NoName",21
"1202",2,38,"h","f",0,572,4,"B2","NoLabel","NoName",21
"1203",2,39,"f","h",0,1061,4,"A4","NoLabel","NoName",21
"1204",2,40,"f","f",1,1241,4,"A3","NoLabel","NoName",21
"1205",2,41,"h","f",0,1506,4,"B4","NoLabel","NoName",21
"1206",2,42,"f","h",0,593,4,"A6","NoLabel","NoName",21
"1207",2,43,"h","f",0,731,4,"B1","NoLabel","NoName",21
"1208",2,44,"f","h",0,519,4,"A5","NoLabel","NoName",21
"1209",2,45,"f","f",1,679,4,"A1","NoLabel","NoName",21
"1210",2,46,"h","f",0,1062,4,"B6","NoLabel","NoName",21
"1211",2,47,"h","f",0,1379,4,"B3","NoLabel","NoName",21
"1212",2,48,"h","h",1,583,4,"B5","NoLabel","NoName",21
"1213",2,49,"f","f",1,644,5,"A4","NoLabel","NoName",21
"1214",2,50,"f","f",1,649,5,"A2","NoLabel","NoName",21
"1215",2,51,"f","f",1,682,5,"A1","NoLabel","NoName",21
"1216",2,52,"h","f",0,5296,5,"B4","NoLabel","NoName",21
"1217",2,53,"h","h",1,3645,5,"B6","NoLabel","NoName",21
"1218",2,54,"h","f",0,4367,5,"B1","NoLabel","NoName",21
"1219",2,55,"h","h",1,1214,5,"B2","NoLabel","NoName",21
"1220",2,56,"h","f",0,222,5,"B5","NoLabel","NoName",21
"1221",2,57,"h","h",1,793,5,"B3","NoLabel","NoName",21
"1222",2,58,"f","f",1,795,5,"A6","NoLabel","NoName",21
"1223",2,59,"f","f",1,530,5,"A5","NoLabel","NoName",21
"1224",2,60,"f","f",1,524,5,"A3","NoLabel","NoName",21
"1225",2,61,"h","f",0,231,6,"B5","NoLabel","NoName",21
"1226",2,62,"h","h",1,633,6,"B6","NoLabel","NoName",21
"1227",2,63,"f","f",1,1143,6,"A1","NoLabel","NoName",21
"1228",2,64,"f","f",1,1919,6,"A5","NoLabel","NoName",21
"1229",2,65,"f","h",0,1088,6,"A6","NoLabel","NoName",21
"1230",2,66,"h","f",0,654,6,"B3","NoLabel","NoName",21
"1231",2,67,"h","f",0,1070,6,"B4","NoLabel","NoName",21
"1232",2,68,"h","h",1,735,6,"B1","NoLabel","NoName",21
"1233",2,69,"f","f",1,2281,6,"A3","NoLabel","NoName",21
"1234",2,70,"f","f",1,380,6,"A4","NoLabel","NoName",21
"1235",2,71,"f","f",1,1690,6,"A2","NoLabel","NoName",21
"1236",2,72,"h","f",0,84,6,"B2","NoLabel","NoName",21
"1237",2,73,"f","h",0,591,7,"A3","NoLabel","NoName",21
"1238",2,74,"h","f",0,993,7,"B1","NoLabel","NoName",21
"1239",2,75,"h","f",0,1646,7,"B6","NoLabel","NoName",21
"1240",2,76,"f","h",0,611,7,"A2","NoLabel","NoName",21
"1241",2,77,"h","f",0,1599,7,"B5","NoLabel","NoName",21
"1242",2,78,"f","h",0,246,7,"A1","NoLabel","NoName",21
"1243",2,79,"h","f",0,2129,7,"B3","NoLabel","NoName",21
"1244",2,80,"f","f",1,680,7,"A4","NoLabel","NoName",21
"1245",2,81,"f","f",1,49,7,"A5","NoLabel","NoName",21
"1246",2,82,"h","f",0,613,7,"B2","NoLabel","NoName",21
"1247",2,83,"f","h",0,426,7,"A6","NoLabel","NoName",21
"1248",2,84,"h","f",0,364,7,"B4","NoLabel","NoName",21
"1249",2,85,"f","h",0,662,8,"A5","NoLabel","NoName",21
"1250",2,86,"h","f",0,640,8,"B4","NoLabel","NoName",21
"1251",2,87,"f","h",0,1199,8,"A2","NoLabel","NoName",21
"1252",2,88,"h","f",0,391,8,"B5","NoLabel","NoName",21
"1253",2,89,"h","h",1,494,8,"B1","NoLabel","NoName",21
"1254",2,90,"h","f",0,250,8,"B3","NoLabel","NoName",21
"1255",2,91,"f","h",0,1551,8,"A3","NoLabel","NoName",21
"1256",2,92,"f","f",1,913,8,"A4","NoLabel","NoName",21
"1257",2,93,"f","f",1,373,8,"A1","NoLabel","NoName",21
"1258",2,94,"h","f",0,893,8,"B6","NoLabel","NoName",21
"1259",2,95,"h","f",0,2368,8,"B2","NoLabel","NoName",21
"1260",2,96,"f","h",0,4744,8,"A6","NoLabel","NoName",21
"1261",2,97,"f","f",1,1268,9,"A3","NoLabel","NoName",21
"1262",2,98,"f","f",1,2773,9,"A4","NoLabel","NoName",21
"1263",2,99,"h","f",0,1130,9,"B2","NoLabel","NoName",21
"1264",2,100,"f","h",0,268,9,"A1","NoLabel","NoName",21
"1265",2,101,"f","f",1,1175,9,"A5","NoLabel","NoName",21
"1266",2,102,"h","h",1,246,9,"B6","NoLabel","NoName",21
"1267",2,103,"h","h",1,516,9,"B4","NoLabel","NoName",21
"1268",2,104,"f","h",0,218,9,"A2","NoLabel","NoName",21
"1269",2,105,"h","f",0,4070,9,"B3","NoLabel","NoName",21
"1270",2,106,"h","h",1,894,9,"B1","NoLabel","NoName",21
"1271",2,107,"f","h",0,5636,9,"A6","NoLabel","NoName",21
"1272",2,108,"h","f",0,549,9,"B5","NoLabel","NoName",21
"1273",2,109,"h","h",1,930,10,"B2","NoLabel","NoName",21
"1274",2,110,"f","f",1,2013,10,"A3","NoLabel","NoName",21
"1275",2,111,"f","f",1,3139,10,"A1","NoLabel","NoName",21
"1276",2,112,"h","f",0,3573,10,"B1","NoLabel","NoName",21
"1277",2,113,"f","f",1,942,10,"A6","NoLabel","NoName",21
"1278",2,114,"f","f",1,818,10,"A2","NoLabel","NoName",21
"1279",2,115,"h","f",0,1228,10,"B5","NoLabel","NoName",21
"1280",2,116,"h","f",0,1138,10,"B3","NoLabel","NoName",21
"1281",2,117,"f","f",1,1319,10,"A4","NoLabel","NoName",21
"1282",2,118,"h","h",1,838,10,"B4","NoLabel","NoName",21
"1283",2,119,"h","h",1,1177,10,"B6","NoLabel","NoName",21
"1284",2,120,"f","h",0,720,10,"A5","NoLabel","NoName",21
"1285",2,121,"f","f",1,2185,11,"A4","NoLabel","NoName",21
"1286",2,122,"h","f",0,1149,11,"B6","NoLabel","NoName",21
"1287",2,123,"f","f",1,540,11,"A5","NoLabel","NoName",21
"1288",2,124,"h","f",0,1613,11,"B1","NoLabel","NoName",21
"1289",2,125,"f","f",1,1550,11,"A1","NoLabel","NoName",21
"1290",2,126,"f","f",1,172,11,"A2","NoLabel","NoName",21
"1291",2,127,"f","f",1,1174,11,"A6","NoLabel","NoName",21
"1292",2,128,"h","f",0,1705,11,"B2","NoLabel","NoName",21
"1293",2,129,"h","h",1,776,11,"B4","NoLabel","NoName",21
"1294",2,130,"h","f",0,2351,11,"B3","NoLabel","NoName",21
"1295",2,131,"h","h",1,1664,11,"B5","NoLabel","NoName",21
"1296",2,132,"f","f",1,4146,11,"A3","NoLabel","NoName",21
"1297",2,133,"h","f",0,4451,12,"B2","NoLabel","NoName",21
"1298",2,134,"h","h",1,2225,12,"B5","NoLabel","NoName",21
"1299",2,135,"f","h",0,1468,12,"A4","NoLabel","NoName",21
"1300",2,136,"h","f",0,920,12,"B3","NoLabel","NoName",21
"1301",2,137,"f","f",1,753,12,"A1","NoLabel","NoName",21
"1302",2,138,"f","f",1,167,12,"A3","NoLabel","NoName",21
"1303",2,139,"h","f",0,4694,12,"B6","NoLabel","NoName",21
"1304",2,140,"h","f",0,3342,12,"B1","NoLabel","NoName",21
"1305",2,141,"f","f",1,2981,12,"A6","NoLabel","NoName",21
"1306",2,142,"f","f",1,1687,12,"A5","NoLabel","NoName",21
"1307",2,143,"f","h",0,1350,12,"A2","NoLabel","NoName",21
"1308",2,144,"h","h",1,1490,12,"B4","NoLabel","NoName",21
"1309",2,145,"h","f",0,1881,13,"B2","NoLabel","NoName",21
"1310",2,146,"h","f",0,943,13,"B4","NoLabel","NoName",21
"1311",2,147,"h","f",0,2664,13,"B6","NoLabel","NoName",21
"1312",2,148,"h","f",0,2790,13,"B5","NoLabel","NoName",21
"1313",2,149,"f","h",0,809,13,"A1","NoLabel","NoName",21
"1314",2,150,"f","f",1,1062,13,"A2","NoLabel","NoName",21
"1315",2,151,"f","f",1,772,13,"A4","NoLabel","NoName",21
"1316",2,152,"h","f",0,3691,13,"B3","NoLabel","NoName",21
"1317",2,153,"h","f",0,711,13,"B1","NoLabel","NoName",21
"1318",2,154,"f","h",0,356,13,"A3","NoLabel","NoName",21
"1319",2,155,"f","f",1,571,13,"A6","NoLabel","NoName",21
"1320",2,156,"f","h",0,3626,13,"A5","NoLabel","NoName",21
"1321",2,157,"h","h",1,5195,14,"B2","NoLabel","NoName",21
"1322",2,158,"h","h",1,5068,14,"B1","NoLabel","NoName",21
"1323",2,159,"f","h",0,3080,14,"A1","NoLabel","NoName",21
"1324",2,160,"h","f",0,1557,14,"B6","NoLabel","NoName",21
"1325",2,161,"h","h",1,757,14,"B4","NoLabel","NoName",21
"1326",2,162,"h","f",0,983,14,"B5","NoLabel","NoName",21
"1327",2,163,"f","f",1,464,14,"A2","NoLabel","NoName",21
"1328",2,164,"f","f",1,410,14,"A4","NoLabel","NoName",21
"1329",2,165,"h","f",0,2419,14,"B3","NoLabel","NoName",21
"1330",2,166,"f","h",0,695,14,"A6","NoLabel","NoName",21
"1331",2,167,"f","h",0,1390,14,"A3","NoLabel","NoName",21
"1332",2,168,"f","f",1,559,14,"A5","NoLabel","NoName",21
"1333",2,169,"f","f",1,1249,15,"A5","NoLabel","NoName",21
"1334",2,170,"h","f",0,875,15,"B1","NoLabel","NoName",21
"1335",2,171,"h","h",1,700,15,"B5","NoLabel","NoName",21
"1336",2,172,"f","h",0,3374,15,"A3","NoLabel","NoName",21
"1337",2,173,"h","f",0,1867,15,"B3","NoLabel","NoName",21
"1338",2,174,"f","f",1,939,15,"A4","NoLabel","NoName",21
"1339",2,175,"h","f",0,675,15,"B4","NoLabel","NoName",21
"1340",2,176,"h","f",0,7745,15,"B6","NoLabel","NoName",21
"1341",2,177,"f","f",1,4732,15,"A2","NoLabel","NoName",21
"1342",2,178,"h","f",0,1065,15,"B2","NoLabel","NoName",21
"1343",2,179,"f","h",0,1216,15,"A1","NoLabel","NoName",21
"1344",2,180,"f","f",1,2352,15,"A6","NoLabel","NoName",21
"1345",2,181,"f","f",1,2073,16,"A1","NoLabel","NoName",21
"1346",2,182,"f","f",1,328,16,"A3","NoLabel","NoName",21
"1347",2,183,"f","f",1,5650,16,"A2","NoLabel","NoName",21
"1348",2,184,"h","f",0,3820,16,"B5","NoLabel","NoName",21
"1349",2,185,"h","f",0,2202,16,"B1","NoLabel","NoName",21
"1350",2,186,"h","h",1,3794,16,"B4","NoLabel","NoName",21
"1351",2,187,"h","f",0,5576,16,"B6","NoLabel","NoName",21
"1352",2,188,"h","f",0,3637,16,"B3","NoLabel","NoName",21
"1353",2,189,"h","h",1,4420,16,"B2","NoLabel","NoName",21
"1354",2,190,"f","h",0,468,16,"A4","NoLabel","NoName",21
"1355",2,191,"f","h",0,4585,16,"A6","NoLabel","NoName",21
"1356",2,192,"f","f",1,1086,16,"A5","NoLabel","NoName",21
"1357",2,193,"h","h",1,2542,17,"B1","NoLabel","NoName",21
"1358",2,194,"f","f",1,3940,17,"A6","NoLabel","NoName",21
"1359",2,195,"h","f",0,4900,17,"B6","NoLabel","NoName",21
"1360",2,196,"f","h",0,881,17,"A5","NoLabel","NoName",21
"1361",2,197,"f","f",1,3625,17,"A3","NoLabel","NoName",21
"1362",2,198,"h","f",0,2222,17,"B4","NoLabel","NoName",21
"1363",2,199,"h","h",1,541,17,"B2","NoLabel","NoName",21
"1364",2,200,"h","f",0,1287,17,"B3","NoLabel","NoName",21
"1365",2,201,"h","f",0,4569,17,"B5","NoLabel","NoName",21
"1366",2,202,"f","h",0,953,17,"A2","NoLabel","NoName",21
"1367",2,203,"f","h",0,905,17,"A4","NoLabel","NoName",21
"1368",2,204,"f","f",1,615,17,"A1","NoLabel","NoName",21
"1369",2,205,"h","f",0,339,18,"B1","NoLabel","NoName",21
"1370",2,206,"h","f",0,454,18,"B6","NoLabel","NoName",21
"1371",2,207,"f","f",1,1838,18,"A5","NoLabel","NoName",21
"1372",2,208,"h","f",0,1090,18,"B2","NoLabel","NoName",21
"1373",2,209,"f","f",1,363,18,"A4","NoLabel","NoName",21
"1374",2,210,"h","h",1,3406,18,"B4","NoLabel","NoName",21
"1375",2,211,"f","f",1,4090,18,"A1","NoLabel","NoName",21
"1376",2,212,"f","f",1,2268,18,"A3","NoLabel","NoName",21
"1377",2,213,"f","h",0,1020,18,"A2","NoLabel","NoName",21
"1378",2,214,"f","h",0,1255,18,"A6","NoLabel","NoName",21
"1379",2,215,"h","f",0,621,18,"B3","NoLabel","NoName",21
"1380",2,216,"h","f",0,730,18,"B5","NoLabel","NoName",21
"1381",2,217,"h","f",0,1299,19,"B3","NoLabel","NoName",21
"1382",2,218,"h","f",0,2688,19,"B6","NoLabel","NoName",21
"1383",2,219,"f","f",1,4513,19,"A1","NoLabel","NoName",21
"1384",2,220,"h","f",0,1,19,"B4","NoLabel","NoName",21
"1385",2,221,"h","f",0,707,19,"B5","NoLabel","NoName",21
"1386",2,222,"f","f",1,927,19,"A4","NoLabel","NoName",21
"1387",2,223,"f","f",1,2321,19,"A2","NoLabel","NoName",21
"1388",2,224,"h","f",0,601,19,"B1","NoLabel","NoName",21
"1389",2,225,"f","f",1,3224,19,"A6","NoLabel","NoName",21
"1390",2,226,"f","f",1,1052,19,"A3","NoLabel","NoName",21
"1391",2,227,"h","f",0,892,19,"B2","NoLabel","NoName",21
"1392",2,228,"f","f",1,6700,19,"A5","NoLabel","NoName",21
"1393",2,229,"f","h",0,791,20,"A5","NoLabel","NoName",21
"1394",2,230,"f","f",1,2292,20,"A3","NoLabel","NoName",21
"1395",2,231,"h","h",1,2932,20,"B1","NoLabel","NoName",21
"1396",2,232,"h","f",0,364,20,"B5","NoLabel","NoName",21
"1397",2,233,"f","h",0,4538,20,"A4","NoLabel","NoName",21
"1398",2,234,"h","f",0,2353,20,"B3","NoLabel","NoName",21
"1399",2,235,"h","h",1,122,20,"B2","NoLabel","NoName",21
"1400",2,236,"h","h",1,1792,20,"B6","NoLabel","NoName",21
"1401",2,237,"f","h",0,4630,20,"A2","NoLabel","NoName",21
"1402",2,238,"h","f",0,1098,20,"B4","NoLabel","NoName",21
"1403",2,239,"f","h",0,4650,20,"A1","NoLabel","NoName",21
"1404",2,240,"f","f",1,4508,20,"A6","NoLabel","NoName",21
"1405",2,241,"f","h",0,1862,21,"A6","NoLabel","NoName",21
"1406",2,242,"f","f",1,2042,21,"A2","NoLabel","NoName",21
"1407",2,243,"h","h",1,2862,21,"B4","NoLabel","NoName",21
"1408",2,244,"f","f",1,668,21,"A4","NoLabel","NoName",21
"1409",2,245,"f","f",1,613,21,"A5","NoLabel","NoName",21
"1410",2,246,"h","h",1,859,21,"B3","NoLabel","NoName",21
"1411",2,247,"f","f",1,128,21,"A1","NoLabel","NoName",21
"1412",2,248,"h","h",1,937,21,"B2","NoLabel","NoName",21
"1413",2,249,"h","h",1,608,21,"B1","NoLabel","NoName",21
"1414",2,250,"f","f",1,4450,21,"A3","NoLabel","NoName",21
"1415",2,251,"h","f",0,3591,21,"B6","NoLabel","NoName",21
"1416",2,252,"h","h",1,7023,21,"B5","NoLabel","NoName",21
"1417",2,253,"h","f",0,114,0,"B6","NoLabel","NoName",21
"1418",2,254,"f","f",1,8391,0,"A5","NoLabel","NoName",21
"1419",2,255,"h","h",1,1979,0,"B3","NoLabel","NoName",21
"1420",2,256,"f","h",0,1135,0,"TestA1","NoLabel","NoName",21
"1421",2,257,"f","h",0,4120,0,"TestA2","NoLabel","NoName",21
"1422",2,258,"f","f",1,3262,0,"A3","NoLabel","NoName",21
"1423",2,259,"h","f",0,403,0,"TestB2","NoLabel","NoName",21
"1424",2,260,"f","h",0,338,0,"A6","NoLabel","NoName",21
"1425",2,261,"h","f",0,259,0,"TestB1","NoLabel","NoName",21
"1426",2,262,"f","h",0,225,0,"A4","NoLabel","NoName",21
"1427",2,263,"h","h",1,740,0,"B4","NoLabel","NoName",21
"1428",2,264,"h","f",0,318,0,"B5","NoLabel","NoName",21
"1429",37,1,"h","f",0,2063,1,"B1","Label","A_Gatoo",2
"1430",37,2,"h","h",1,2728,1,"B3","Label","A_Gatoo",2
"1431",37,3,"h","f",0,2006,1,"B5","Label","A_Gatoo",2
"1432",37,4,"h","h",1,758,1,"B2","Label","A_Gatoo",2
"1433",37,5,"f","h",0,675,1,"A3","Label","A_Gatoo",2
"1434",37,6,"f","f",1,1895,1,"A1","Label","A_Gatoo",2
"1435",37,7,"h","h",1,551,1,"B6","Label","A_Gatoo",2
"1436",37,8,"f","f",1,811,1,"A6","Label","A_Gatoo",2
"1437",37,9,"f","f",1,870,1,"A2","Label","A_Gatoo",2
"1438",37,10,"h","h",1,496,1,"B4","Label","A_Gatoo",2
"1439",37,11,"f","f",1,654,1,"A4","Label","A_Gatoo",2
"1440",37,12,"f","f",1,1011,1,"A5","Label","A_Gatoo",2
"1441",37,13,"h","h",1,453,2,"B4","Label","A_Gatoo",2
"1442",37,14,"h","h",1,508,2,"B5","Label","A_Gatoo",2
"1443",37,15,"f","f",1,627,2,"A4","Label","A_Gatoo",2
"1444",37,16,"f","f",1,567,2,"A5","Label","A_Gatoo",2
"1445",37,17,"f","f",1,505,2,"A2","Label","A_Gatoo",2
"1446",37,18,"f","f",1,385,2,"A6","Label","A_Gatoo",2
"1447",37,19,"f","f",1,521,2,"A1","Label","A_Gatoo",2
"1448",37,20,"h","h",1,619,2,"B6","Label","A_Gatoo",2
"1449",37,21,"f","f",1,584,2,"A3","Label","A_Gatoo",2
"1450",37,22,"h","h",1,571,2,"B3","Label","A_Gatoo",2
"1451",37,23,"h","h",1,520,2,"B1","Label","A_Gatoo",2
"1452",37,24,"h","h",1,469,2,"B2","Label","A_Gatoo",2
"1453",37,253,"h","h",1,646,0,"TestB2","Label","A_Gatoo",2
"1454",37,254,"h","h",1,517,0,"B5","Label","A_Gatoo",2
"1455",37,255,"f","f",1,576,0,"A5","Label","A_Gatoo",2
"1456",37,256,"h","h",1,493,0,"TestB1","Label","A_Gatoo",2
"1457",37,257,"h","h",1,454,0,"B6","Label","A_Gatoo",2
"1458",37,258,"h","h",1,503,0,"B4","Label","A_Gatoo",2
"1459",37,259,"f","f",1,580,0,"TestA1","Label","A_Gatoo",2
"1460",37,260,"f","f",1,441,0,"TestA2","Label","A_Gatoo",2
"1461",37,261,"f","f",1,431,0,"A4","Label","A_Gatoo",2
"1462",37,262,"h","f",0,362,0,"B3","Label","A_Gatoo",2
"1463",37,263,"f","f",1,527,0,"A3","Label","A_Gatoo",2
"1464",37,264,"f","f",1,570,0,"A6","Label","A_Gatoo",2
"1465",38,1,"f","h",0,2032,1,"A6","NoLabel","NoName",2
"1466",38,2,"h","h",1,2099,1,"B4","NoLabel","NoName",2
"1467",38,3,"h","h",1,1427,1,"B5","NoLabel","NoName",2
"1468",38,4,"f","f",1,1154,1,"A5","NoLabel","NoName",2
"1469",38,5,"h","h",1,945,1,"B3","NoLabel","NoName",2
"1470",38,6,"h","h",1,932,1,"B2","NoLabel","NoName",2
"1471",38,7,"f","f",1,684,1,"A3","NoLabel","NoName",2
"1472",38,8,"f","f",1,889,1,"A2","NoLabel","NoName",2
"1473",38,9,"h","h",1,652,1,"B6","NoLabel","NoName",2
"1474",38,10,"f","f",1,738,1,"A1","NoLabel","NoName",2
"1475",38,11,"f","f",1,876,1,"A4","NoLabel","NoName",2
"1476",38,12,"h","h",1,947,1,"B1","NoLabel","NoName",2
"1477",38,13,"f","f",1,780,2,"A4","NoLabel","NoName",2
"1478",38,14,"f","f",1,1197,2,"A5","NoLabel","NoName",2
"1479",38,15,"f","f",1,854,2,"A2","NoLabel","NoName",2
"1480",38,16,"h","h",1,1216,2,"B1","NoLabel","NoName",2
"1481",38,17,"h","h",1,809,2,"B4","NoLabel","NoName",2
"1482",38,18,"h","h",1,980,2,"B3","NoLabel","NoName",2
"1483",38,19,"h","h",1,1240,2,"B6","NoLabel","NoName",2
"1484",38,20,"h","h",1,702,2,"B5","NoLabel","NoName",2
"1485",38,21,"f","f",1,837,2,"A3","NoLabel","NoName",2
"1486",38,22,"f","f",1,1149,2,"A6","NoLabel","NoName",2
"1487",38,23,"f","f",1,749,2,"A1","NoLabel","NoName",2
"1488",38,24,"h","h",1,932,2,"B2","NoLabel","NoName",2
"1489",38,253,"f","f",1,598,0,"A3","NoLabel","NoName",2
"1490",38,254,"h","h",1,699,0,"TestB1","NoLabel","NoName",2
"1491",38,255,"h","h",1,622,0,"B4","NoLabel","NoName",2
"1492",38,256,"f","f",1,668,0,"TestA2","NoLabel","NoName",2
"1493",38,257,"h","h",1,548,0,"B3","NoLabel","NoName",2
"1494",38,258,"h","h",1,678,0,"B5","NoLabel","NoName",2
"1495",38,259,"h","h",1,886,0,"TestB2","NoLabel","NoName",2
"1496",38,260,"f","f",1,624,0,"TestA1","NoLabel","NoName",2
"1497",38,261,"f","f",1,631,0,"A4","NoLabel","NoName",2
"1498",38,262,"h","h",1,660,0,"B6","NoLabel","NoName",2
"1499",38,263,"f","f",1,655,0,"A6","NoLabel","NoName",2
"1500",38,264,"f","f",1,783,0,"A5","NoLabel","NoName",2
"1501",36,1,"f","f",1,3696,1,"A6","Label","A_Saldie",2
"1502",36,2,"h","f",0,2774,1,"B3","Label","A_Saldie",2
"1503",36,3,"f","f",1,2182,1,"A1","Label","A_Saldie",2
"1504",36,4,"h","h",1,1345,1,"B5","Label","A_Saldie",2
"1505",36,5,"h","h",1,1937,1,"B6","Label","A_Saldie",2
"1506",36,6,"h","h",1,921,1,"B4","Label","A_Saldie",2
"1507",36,7,"f","h",0,1203,1,"A4","Label","A_Saldie",2
"1508",36,8,"h","f",0,2308,1,"B1","Label","A_Saldie",2
"1509",36,9,"f","f",1,1821,1,"A5","Label","A_Saldie",2
"1510",36,10,"h","h",1,1725,1,"B2","Label","A_Saldie",2
"1511",36,11,"f","f",1,1404,1,"A3","Label","A_Saldie",2
"1512",36,12,"f","f",1,2066,1,"A2","Label","A_Saldie",2
"1513",36,13,"f","f",1,746,2,"A2","Label","A_Saldie",2
"1514",36,14,"h","h",1,883,2,"B3","Label","A_Saldie",2
"1515",36,15,"f","f",1,2987,2,"A4","Label","A_Saldie",2
"1516",36,16,"h","h",1,754,2,"B1","Label","A_Saldie",2
"1517",36,17,"f","f",1,968,2,"A5","Label","A_Saldie",2
"1518",36,18,"f","f",1,854,2,"A1","Label","A_Saldie",2
"1519",36,19,"f","f",1,1028,2,"A6","Label","A_Saldie",2
"1520",36,20,"f","f",1,840,2,"A3","Label","A_Saldie",2
"1521",36,21,"h","h",1,646,2,"B4","Label","A_Saldie",2
"1522",36,22,"h","h",1,822,2,"B2","Label","A_Saldie",2
"1523",36,23,"h","h",1,682,2,"B6","Label","A_Saldie",2
"1524",36,24,"h","h",1,539,2,"B5","Label","A_Saldie",2
"1525",36,253,"f","f",1,2736,0,"TestA2","Label","A_Saldie",2
"1526",36,254,"f","f",1,1048,0,"A4","Label","A_Saldie",2
"1527",36,255,"h","h",1,825,0,"B3","Label","A_Saldie",2
"1528",36,256,"f","f",1,1085,0,"A6","Label","A_Saldie",2
"1529",36,257,"f","f",1,813,0,"A3","Label","A_Saldie",2
"1530",36,258,"h","h",1,665,0,"B5","Label","A_Saldie",2
"1531",36,259,"h","h",1,722,0,"TestB1","Label","A_Saldie",2
"1532",36,260,"h","h",1,570,0,"B4","Label","A_Saldie",2
"1533",36,261,"h","h",1,589,0,"B6","Label","A_Saldie",2
"1534",36,262,"f","f",1,807,0,"TestA1","Label","A_Saldie",2
"1535",36,263,"f","f",1,720,0,"A5","Label","A_Saldie",2
"1536",36,264,"h","h",1,1183,0,"TestB2","Label","A_Saldie",2
"1537",39,1,"f","f",1,923,1,"A1","NoLabel","NoName",2
"1538",39,2,"h","f",0,859,1,"B1","NoLabel","NoName",2
"1539",39,3,"f","h",0,1180,1,"A3","NoLabel","NoName",2
"1540",39,4,"h","h",1,1251,1,"B6","NoLabel","NoName",2
"1541",39,5,"f","h",0,1463,1,"A5","NoLabel","NoName",2
"1542",39,6,"h","h",1,614,1,"B4","NoLabel","NoName",2
"1543",39,7,"h","h",1,716,1,"B5","NoLabel","NoName",2
"1544",39,8,"h","h",1,646,1,"B2","NoLabel","NoName",2
"1545",39,9,"f","f",1,1044,1,"A2","NoLabel","NoName",2
"1546",39,10,"h","h",1,937,1,"B3","NoLabel","NoName",2
"1547",39,11,"f","f",1,864,1,"A6","NoLabel","NoName",2
"1548",39,12,"f","f",1,836,1,"A4","NoLabel","NoName",2
"1549",39,13,"h","h",1,689,2,"B2","NoLabel","NoName",2
"1550",39,14,"h","h",1,669,2,"B6","NoLabel","NoName",2
"1551",39,15,"h","h",1,529,2,"B1","NoLabel","NoName",2
"1552",39,16,"f","f",1,847,2,"A3","NoLabel","NoName",2
"1553",39,17,"f","f",1,721,2,"A1","NoLabel","NoName",2
"1554",39,18,"h","h",1,937,2,"B4","NoLabel","NoName",2
"1555",39,19,"f","f",1,750,2,"A4","NoLabel","NoName",2
"1556",39,20,"f","f",1,856,2,"A5","NoLabel","NoName",2
"1557",39,21,"f","f",1,662,2,"A2","NoLabel","NoName",2
"1558",39,22,"f","f",1,408,2,"A6","NoLabel","NoName",2
"1559",39,23,"h","h",1,854,2,"B5","NoLabel","NoName",2
"1560",39,24,"h","h",1,422,2,"B3","NoLabel","NoName",2
"1561",39,253,"h","f",0,954,0,"TestB2","NoLabel","NoName",2
"1562",39,254,"h","h",1,634,0,"B5","NoLabel","NoName",2
"1563",39,255,"f","f",1,526,0,"A5","NoLabel","NoName",2
"1564",39,256,"h","h",1,1587,0,"B4","NoLabel","NoName",2
"1565",39,257,"f","f",1,439,0,"TestA2","NoLabel","NoName",2
"1566",39,258,"f","f",1,549,0,"A3","NoLabel","NoName",2
"1567",39,259,"h","h",1,502,0,"B6","NoLabel","NoName",2
"1568",39,260,"h","h",1,468,0,"B3","NoLabel","NoName",2
"1569",39,261,"f","f",1,543,0,"A4","NoLabel","NoName",2
"1570",39,262,"f","f",1,421,0,"A6","NoLabel","NoName",2
"1571",39,263,"h","h",1,449,0,"TestB1","NoLabel","NoName",2
"1572",39,264,"f","f",1,595,0,"TestA1","NoLabel","NoName",2
"1573",35,1,"","",0,0,1,"B1","NoLabel","NoName",3
"1574",35,2,"","",0,0,1,"A4","NoLabel","NoName",3
"1575",35,3,"","",0,0,1,"B4","NoLabel","NoName",3
"1576",35,4,"","",0,0,1,"A6","NoLabel","NoName",3
"1577",35,5,"h","h",1,622,1,"B3","NoLabel","NoName",3
"1578",35,6,"h","f",0,1166,1,"B6","NoLabel","NoName",3
"1579",35,7,"f","h",0,482,1,"A5","NoLabel","NoName",3
"1580",35,8,"h","f",0,571,1,"B5","NoLabel","NoName",3
"1581",35,9,"f","f",1,7186,1,"A3","NoLabel","NoName",3
"1582",35,10,"h","f",0,1006,1,"B2","NoLabel","NoName",3
"1583",35,11,"f","f",1,2217,1,"A1","NoLabel","NoName",3
"1584",35,12,"f","f",1,685,1,"A2","NoLabel","NoName",3
"1585",35,13,"f","f",1,530,2,"A1","NoLabel","NoName",3
"1586",35,14,"f","f",1,643,2,"A3","NoLabel","NoName",3
"1587",35,15,"h","f",0,576,2,"B2","NoLabel","NoName",3
"1588",35,16,"h","f",0,1116,2,"B5","NoLabel","NoName",3
"1589",35,17,"f","h",0,2616,2,"A2","NoLabel","NoName",3
"1590",35,18,"h","f",0,618,2,"B3","NoLabel","NoName",3
"1591",35,19,"f","h",0,2432,2,"A5","NoLabel","NoName",3
"1592",35,20,"h","f",0,2421,2,"B4","NoLabel","NoName",3
"1593",35,21,"f","f",1,2195,2,"A6","NoLabel","NoName",3
"1594",35,22,"h","h",1,4546,2,"B1","NoLabel","NoName",3
"1595",35,23,"h","h",1,957,2,"B6","NoLabel","NoName",3
"1596",35,24,"f","f",1,733,2,"A4","NoLabel","NoName",3
"1597",35,25,"f","f",1,1105,3,"A2","NoLabel","NoName",3
"1598",35,26,"h","h",1,698,3,"B5","NoLabel","NoName",3
"1599",35,27,"h","h",1,1334,3,"B2","NoLabel","NoName",3
"1600",35,28,"f","f",1,1144,3,"A6","NoLabel","NoName",3
"1601",35,29,"f","f",1,841,3,"A1","NoLabel","NoName",3
"1602",35,30,"h","h",1,601,3,"B3","NoLabel","NoName",3
"1603",35,31,"f","f",1,622,3,"A4","NoLabel","NoName",3
"1604",35,32,"f","f",1,1475,3,"A5","NoLabel","NoName",3
"1605",35,33,"f","f",1,719,3,"A3","NoLabel","NoName",3
"1606",35,34,"h","h",1,722,3,"B4","NoLabel","NoName",3
"1607",35,35,"h","h",1,765,3,"B6","NoLabel","NoName",3
"1608",35,36,"h","h",1,626,3,"B1","NoLabel","NoName",3
"1609",35,253,"f","f",1,1002,0,"TestA2","NoLabel","NoName",3
"1610",35,254,"h","h",1,1462,0,"B4","NoLabel","NoName",3
"1611",35,255,"f","f",1,667,0,"A5","NoLabel","NoName",3
"1612",35,256,"f","f",1,922,0,"A3","NoLabel","NoName",3
"1613",35,257,"h","h",1,855,0,"B5","NoLabel","NoName",3
"1614",35,258,"f","f",1,739,0,"TestA1","NoLabel","NoName",3
"1615",35,259,"h","h",1,988,0,"TestB1","NoLabel","NoName",3
"1616",35,260,"h","h",1,5187,0,"TestB2","NoLabel","NoName",3
"1617",35,261,"h","h",1,2859,0,"B3","NoLabel","NoName",3
"1618",35,262,"f","f",1,555,0,"A4","NoLabel","NoName",3
"1619",35,263,"f","f",1,520,0,"A6","NoLabel","NoName",3
"1620",35,264,"h","h",1,920,0,"B6","NoLabel","NoName",3
"1621",42,1,"f","f",1,2901,1,"A2","NoLabel","NoName",4
"1622",42,2,"h","f",0,1197,1,"B4","NoLabel","NoName",4
"1623",42,3,"h","f",0,1847,1,"B1","NoLabel","NoName",4
"1624",42,4,"h","h",1,1000,1,"B5","NoLabel","NoName",4
"1625",42,5,"f","h",0,1654,1,"A4","NoLabel","NoName",4
"1626",42,6,"f","h",0,2426,1,"A3","NoLabel","NoName",4
"1627",42,7,"f","f",1,1974,1,"A6","NoLabel","NoName",4
"1628",42,8,"h","f",0,2495,1,"B3","NoLabel","NoName",4
"1629",42,9,"f","h",0,1651,1,"A1","NoLabel","NoName",4
"1630",42,10,"h","f",0,1632,1,"B2","NoLabel","NoName",4
"1631",42,11,"h","h",1,2400,1,"B6","NoLabel","NoName",4
"1632",42,12,"f","f",1,1612,1,"A5","NoLabel","NoName",4
"1633",42,13,"f","f",1,2165,2,"A2","NoLabel","NoName",4
"1634",42,14,"f","h",0,758,2,"A4","NoLabel","NoName",4
"1635",42,15,"h","h",1,1271,2,"B6","NoLabel","NoName",4
"1636",42,16,"h","h",1,1069,2,"B5","NoLabel","NoName",4
"1637",42,17,"h","h",1,715,2,"B4","NoLabel","NoName",4
"1638",42,18,"f","f",1,931,2,"A1","NoLabel","NoName",4
"1639",42,19,"h","h",1,859,2,"B3","NoLabel","NoName",4
"1640",42,20,"f","f",1,909,2,"A6","NoLabel","NoName",4
"1641",42,21,"h","h",1,777,2,"B1","NoLabel","NoName",4
"1642",42,22,"h","h",1,794,2,"B2","NoLabel","NoName",4
"1643",42,23,"f","f",1,910,2,"A3","NoLabel","NoName",4
"1644",42,24,"f","f",1,855,2,"A5","NoLabel","NoName",4
"1645",42,25,"h","h",1,867,3,"B3","NoLabel","NoName",4
"1646",42,26,"h","h",1,668,3,"B1","NoLabel","NoName",4
"1647",42,27,"h","h",1,819,3,"B6","NoLabel","NoName",4
"1648",42,28,"h","h",1,881,3,"B5","NoLabel","NoName",4
"1649",42,29,"h","h",1,704,3,"B2","NoLabel","NoName",4
"1650",42,30,"f","f",1,784,3,"A2","NoLabel","NoName",4
"1651",42,31,"f","f",1,724,3,"A1","NoLabel","NoName",4
"1652",42,32,"f","f",1,671,3,"A5","NoLabel","NoName",4
"1653",42,33,"f","f",1,454,3,"A4","NoLabel","NoName",4
"1654",42,34,"f","f",1,640,3,"A3","NoLabel","NoName",4
"1655",42,35,"h","f",0,533,3,"B4","NoLabel","NoName",4
"1656",42,36,"f","f",1,744,3,"A6","NoLabel","NoName",4
"1657",42,37,"f","f",1,735,4,"A6","NoLabel","NoName",4
"1658",42,38,"h","h",1,803,4,"B5","NoLabel","NoName",4
"1659",42,39,"f","f",1,689,4,"A5","NoLabel","NoName",4
"1660",42,40,"f","f",1,848,4,"A3","NoLabel","NoName",4
"1661",42,41,"h","h",1,684,4,"B3","NoLabel","NoName",4
"1662",42,42,"h","h",1,713,4,"B1","NoLabel","NoName",4
"1663",42,43,"f","f",1,699,4,"A1","NoLabel","NoName",4
"1664",42,44,"f","f",1,916,4,"A2","NoLabel","NoName",4
"1665",42,45,"f","f",1,976,4,"A4","NoLabel","NoName",4
"1666",42,46,"h","h",1,717,4,"B2","NoLabel","NoName",4
"1667",42,47,"h","h",1,714,4,"B6","NoLabel","NoName",4
"1668",42,48,"h","h",1,622,4,"B4","NoLabel","NoName",4
"1669",42,253,"f","f",1,1303,0,"A5","NoLabel","NoName",4
"1670",42,254,"f","f",1,826,0,"A6","NoLabel","NoName",4
"1671",42,255,"f","f",1,607,0,"A4","NoLabel","NoName",4
"1672",42,256,"h","h",1,715,0,"B4","NoLabel","NoName",4
"1673",42,257,"h","h",1,1631,0,"B6","NoLabel","NoName",4
"1674",42,258,"f","f",1,848,0,"TestA1","NoLabel","NoName",4
"1675",42,259,"f","f",1,1252,0,"TestA2","NoLabel","NoName",4
"1676",42,260,"h","h",1,803,0,"TestB1","NoLabel","NoName",4
"1677",42,261,"f","f",1,755,0,"A3","NoLabel","NoName",4
"1678",42,262,"h","h",1,1082,0,"TestB2","NoLabel","NoName",4
"1679",42,263,"h","h",1,756,0,"B5","NoLabel","NoName",4
"1680",42,264,"h","h",1,544,0,"B3","NoLabel","NoName",4
"1681",4,1,"f","h",0,1329,1,"A4","Label","A_Saldie",6
"1682",4,2,"h","f",0,1201,1,"B1","Label","A_Saldie",6
"1683",4,3,"f","f",1,2448,1,"A5","Label","A_Saldie",6
"1684",4,4,"h","f",0,1105,1,"B6","Label","A_Saldie",6
"1685",4,5,"f","f",1,1789,1,"A6","Label","A_Saldie",6
"1686",4,6,"h","h",1,1250,1,"B3","Label","A_Saldie",6
"1687",4,7,"f","h",0,1346,1,"A3","Label","A_Saldie",6
"1688",4,8,"h","f",0,1960,1,"B2","Label","A_Saldie",6
"1689",4,9,"f","h",0,3434,1,"A1","Label","A_Saldie",6
"1690",4,10,"f","h",0,2054,1,"A2","Label","A_Saldie",6
"1691",4,11,"h","f",0,1869,1,"B5","Label","A_Saldie",6
"1692",4,12,"h","h",1,1863,1,"B4","Label","A_Saldie",6
"1693",4,13,"h","h",1,1127,2,"B6","Label","A_Saldie",6
"1694",4,14,"f","f",1,1164,2,"A5","Label","A_Saldie",6
"1695",4,15,"h","f",0,629,2,"B3","Label","A_Saldie",6
"1696",4,16,"f","f",1,3055,2,"A4","Label","A_Saldie",6
"1697",4,17,"f","f",1,2856,2,"A6","Label","A_Saldie",6
"1698",4,18,"f","h",0,1030,2,"A1","Label","A_Saldie",6
"1699",4,19,"h","h",1,1436,2,"B1","Label","A_Saldie",6
"1700",4,20,"h","h",1,1468,2,"B2","Label","A_Saldie",6
"1701",4,21,"f","f",1,1605,2,"A3","Label","A_Saldie",6
"1702",4,22,"f","h",0,2936,2,"A2","Label","A_Saldie",6
"1703",4,23,"h","h",1,2575,2,"B5","Label","A_Saldie",6
"1704",4,24,"h","h",1,1675,2,"B4","Label","A_Saldie",6
"1705",4,25,"h","h",1,809,3,"B4","Label","A_Saldie",6
"1706",4,26,"f","f",1,1576,3,"A2","Label","A_Saldie",6
"1707",4,27,"h","h",1,3902,3,"B5","Label","A_Saldie",6
"1708",4,28,"f","f",1,2099,3,"A6","Label","A_Saldie",6
"1709",4,29,"h","f",0,4670,3,"B2","Label","A_Saldie",6
"1710",4,30,"f","f",1,3840,3,"A1","Label","A_Saldie",6
"1711",4,31,"h","h",1,2439,3,"B3","Label","A_Saldie",6
"1712",4,32,"h","f",0,1546,3,"B6","Label","A_Saldie",6
"1713",4,33,"h","f",0,3674,3,"B1","Label","A_Saldie",6
"1714",4,34,"f","f",1,5201,3,"A3","Label","A_Saldie",6
"1715",4,35,"f","h",0,2274,3,"A4","Label","A_Saldie",6
"1716",4,36,"f","f",1,2537,3,"A5","Label","A_Saldie",6
"1717",4,37,"h","f",0,3361,4,"B1","Label","A_Saldie",6
"1718",4,38,"f","f",1,2529,4,"A3","Label","A_Saldie",6
"1719",4,39,"f","f",1,2817,4,"A5","Label","A_Saldie",6
"1720",4,40,"h","h",1,3050,4,"B4","Label","A_Saldie",6
"1721",4,41,"f","h",0,2836,4,"A6","Label","A_Saldie",6
"1722",4,42,"f","h",0,4947,4,"A4","Label","A_Saldie",6
"1723",4,43,"f","h",0,1650,4,"A2","Label","A_Saldie",6
"1724",4,44,"f","h",0,1532,4,"A1","Label","A_Saldie",6
"1725",4,45,"h","h",1,1143,4,"B2","Label","A_Saldie",6
"1726",4,46,"h","h",1,3723,4,"B6","Label","A_Saldie",6
"1727",4,47,"h","h",1,4489,4,"B5","Label","A_Saldie",6
"1728",4,48,"h","h",1,5891,4,"B3","Label","A_Saldie",6
"1729",4,49,"h","h",1,4157,5,"B1","Label","A_Saldie",6
"1730",4,50,"f","h",0,7343,5,"A2","Label","A_Saldie",6
"1731",4,51,"h","h",1,5490,5,"B5","Label","A_Saldie",6
"1732",4,52,"h","h",1,4189,5,"B3","Label","A_Saldie",6
"1733",4,53,"h","f",0,6635,5,"B4","Label","A_Saldie",6
"1734",4,54,"f","h",0,6862,5,"A1","Label","A_Saldie",6
"1735",4,55,"h","h",1,4132,5,"B6","Label","A_Saldie",6
"1736",4,56,"f","f",1,4722,5,"A3","Label","A_Saldie",6
"1737",4,57,"f","f",1,3785,5,"A6","Label","A_Saldie",6
"1738",4,58,"f","f",1,3025,5,"A4","Label","A_Saldie",6
"1739",4,59,"f","f",1,2862,5,"A5","Label","A_Saldie",6
"1740",4,60,"h","h",1,1307,5,"B2","Label","A_Saldie",6
"1741",4,61,"h","h",1,4759,6,"B1","Label","A_Saldie",6
"1742",4,62,"f","f",1,1004,6,"A1","Label","A_Saldie",6
"1743",4,63,"f","f",1,1087,6,"A2","Label","A_Saldie",6
"1744",4,64,"h","h",1,2186,6,"B6","Label","A_Saldie",6
"1745",4,65,"f","f",1,980,6,"A3","Label","A_Saldie",6
"1746",4,66,"h","h",1,1071,6,"B2","Label","A_Saldie",6
"1747",4,67,"h","h",1,1079,6,"B4","Label","A_Saldie",6
"1748",4,68,"f","f",1,1184,6,"A6","Label","A_Saldie",6
"1749",4,69,"h","h",1,1366,6,"B5","Label","A_Saldie",6
"1750",4,70,"h","h",1,601,6,"B3","Label","A_Saldie",6
"1751",4,71,"f","f",1,1104,6,"A5","Label","A_Saldie",6
"1752",4,72,"f","f",1,600,6,"A4","Label","A_Saldie",6
"1753",4,253,"h","h",1,644,0,"B5","Label","A_Saldie",6
"1754",4,254,"f","f",1,846,0,"A5","Label","A_Saldie",6
"1755",4,255,"f","f",1,645,0,"A3","Label","A_Saldie",6
"1756",4,256,"h","h",1,741,0,"TestB2","Label","A_Saldie",6
"1757",4,257,"f","f",1,525,0,"TestA2","Label","A_Saldie",6
"1758",4,258,"f","f",1,707,0,"A6","Label","A_Saldie",6
"1759",4,259,"h","h",1,519,0,"B4","Label","A_Saldie",6
"1760",4,260,"f","f",1,586,0,"A4","Label","A_Saldie",6
"1761",4,261,"h","h",1,779,0,"B3","Label","A_Saldie",6
"1762",4,262,"h","h",1,968,0,"TestB1","Label","A_Saldie",6
"1763",4,263,"h","h",1,557,0,"B6","Label","A_Saldie",6
"1764",4,264,"f","f",1,650,0,"TestA1","Label","A_Saldie",6
"1765",40,1,"h","f",0,2686,1,"B5","Label","A_Saldie",5
"1766",40,2,"f","h",0,1246,1,"A3","Label","A_Saldie",5
"1767",40,3,"f","h",0,1351,1,"A1","Label","A_Saldie",5
"1768",40,4,"f","f",1,1110,1,"A6","Label","A_Saldie",5
"1769",40,5,"h","f",0,1173,1,"B4","Label","A_Saldie",5
"1770",40,6,"f","h",0,2282,1,"A5","Label","A_Saldie",5
"1771",40,7,"h","f",0,3349,1,"B2","Label","A_Saldie",5
"1772",40,8,"f","h",0,1614,1,"A2","Label","A_Saldie",5
"1773",40,9,"f","h",0,1303,1,"A4","Label","A_Saldie",5
"1774",40,10,"h","f",0,1460,1,"B6","Label","A_Saldie",5
"1775",40,11,"h","h",1,433,1,"B1","Label","A_Saldie",5
"1776",40,12,"h","h",1,828,1,"B3","Label","A_Saldie",5
"1777",40,13,"h","f",0,620,2,"B6","Label","A_Saldie",5
"1778",40,14,"f","h",0,2118,2,"A2","Label","A_Saldie",5
"1779",40,15,"h","h",1,1697,2,"B3","Label","A_Saldie",5
"1780",40,16,"f","f",1,878,2,"A5","Label","A_Saldie",5
"1781",40,17,"f","f",1,647,2,"A3","Label","A_Saldie",5
"1782",40,18,"h","h",1,622,2,"B4","Label","A_Saldie",5
"1783",40,19,"h","h",1,533,2,"B2","Label","A_Saldie",5
"1784",40,20,"f","f",1,773,2,"A1","Label","A_Saldie",5
"1785",40,21,"h","h",1,616,2,"B5","Label","A_Saldie",5
"1786",40,22,"f","f",1,451,2,"A4","Label","A_Saldie",5
"1787",40,23,"f","f",1,554,2,"A6","Label","A_Saldie",5
"1788",40,24,"h","h",1,953,2,"B1","Label","A_Saldie",5
"1789",40,25,"h","h",1,541,3,"B6","Label","A_Saldie",5
"1790",40,26,"h","h",1,672,3,"B3","Label","A_Saldie",5
"1791",40,27,"f","f",1,555,3,"A4","Label","A_Saldie",5
"1792",40,28,"f","f",1,993,3,"A3","Label","A_Saldie",5
"1793",40,29,"h","h",1,532,3,"B4","Label","A_Saldie",5
"1794",40,30,"h","f",0,680,3,"B5","Label","A_Saldie",5
"1795",40,31,"h","h",1,470,3,"B2","Label","A_Saldie",5
"1796",40,32,"f","f",1,570,3,"A2","Label","A_Saldie",5
"1797",40,33,"f","f",1,362,3,"A6","Label","A_Saldie",5
"1798",40,34,"h","h",1,503,3,"B1","Label","A_Saldie",5
"1799",40,35,"f","f",1,579,3,"A1","Label","A_Saldie",5
"1800",40,36,"f","f",1,623,3,"A5","Label","A_Saldie",5
"1801",40,37,"h","h",1,601,4,"B5","Label","A_Saldie",5
"1802",40,38,"f","f",1,595,4,"A1","Label","A_Saldie",5
"1803",40,39,"f","f",1,950,4,"A2","Label","A_Saldie",5
"1804",40,40,"h","h",1,889,4,"B3","Label","A_Saldie",5
"1805",40,41,"f","f",1,550,4,"A3","Label","A_Saldie",5
"1806",40,42,"f","f",1,611,4,"A5","Label","A_Saldie",5
"1807",40,43,"h","h",1,741,4,"B4","Label","A_Saldie",5
"1808",40,44,"f","f",1,569,4,"A6","Label","A_Saldie",5
"1809",40,45,"h","h",1,537,4,"B2","Label","A_Saldie",5
"1810",40,46,"f","f",1,593,4,"A4","Label","A_Saldie",5
"1811",40,47,"h","f",0,696,4,"B1","Label","A_Saldie",5
"1812",40,48,"h","h",1,706,4,"B6","Label","A_Saldie",5
"1813",40,49,"f","f",1,563,5,"A1","Label","A_Saldie",5
"1814",40,50,"h","h",1,722,5,"B1","Label","A_Saldie",5
"1815",40,51,"h","h",1,600,5,"B2","Label","A_Saldie",5
