"","Subject","TrialId","CRESP","RESP","ACC","RT","Block","Stimulus","Condition","CategoryName","Age","Gender","NBlocks","LogNBlocks","LogRT"
"1",1,1,"f","h",0,2591,1,"A5","Label","A_Gatoo",19,"F",2,0.693147180559945,7.85979918056211
"2",1,2,"f","h",0,2186,1,"A6","Label","A_Gatoo",19,"F",2,0.693147180559945,7.68982866873648
"3",1,3,"f","f",1,1855,1,"A2","Label","A_Gatoo",19,"F",2,0.693147180559945,7.52563997504154
"4",1,4,"h","h",1,1476,1,"B1","Label","A_Gatoo",19,"F",2,0.693147180559945,7.29709100516042
"5",1,5,"f","f",1,1038,1,"A3","Label","A_Gatoo",19,"F",2,0.693147180559945,6.94505106372583
"6",1,6,"h","h",1,828,1,"B5","Label","A_Gatoo",19,"F",2,0.693147180559945,6.71901315438526
"7",1,7,"f","f",1,1311,1,"A1","Label","A_Gatoo",19,"F",2,0.693147180559945,7.1785454837637
"8",1,8,"h","h",1,883,1,"B4","Label","A_Gatoo",19,"F",2,0.693147180559945,6.78332520060396
"9",1,9,"h","h",1,1019,1,"B2","Label","A_Gatoo",19,"F",2,0.693147180559945,6.92657703322272
"10",1,10,"f","f",1,788,1,"A4","Label","A_Gatoo",19,"F",2,0.693147180559945,6.66949808985788
"11",1,11,"h","h",1,824,1,"B3","Label","A_Gatoo",19,"F",2,0.693147180559945,6.71417052990947
"12",1,12,"h","h",1,990,1,"B6","Label","A_Gatoo",19,"F",2,0.693147180559945,6.89770494312864
"13",1,13,"f","f",1,821,2,"A3","Label","A_Gatoo",19,"F",2,0.693147180559945,6.71052310945243
"14",1,14,"f","f",1,977,2,"A5","Label","A_Gatoo",19,"F",2,0.693147180559945,6.88448665204278
"15",1,15,"h","h",1,740,2,"B5","Label","A_Gatoo",19,"F",2,0.693147180559945,6.60665018619822
"16",1,16,"h","h",1,674,2,"B6","Label","A_Gatoo",19,"F",2,0.693147180559945,6.51323011091231
"17",1,17,"h","h",1,706,2,"B1","Label","A_Gatoo",19,"F",2,0.693147180559945,6.55961523749324
"18",1,18,"h","h",1,651,2,"B4","Label","A_Gatoo",19,"F",2,0.693147180559945,6.47850964220857
"19",1,19,"f","f",1,1082,2,"A1","Label","A_Gatoo",19,"F",2,0.693147180559945,6.98656645940643
"20",1,20,"h","h",1,670,2,"B3","Label","A_Gatoo",19,"F",2,0.693147180559945,6.50727771238501
"21",1,21,"h","h",1,1354,2,"B2","Label","A_Gatoo",19,"F",2,0.693147180559945,7.21081845347222
"22",1,22,"f","f",1,663,2,"A4","Label","A_Gatoo",19,"F",2,0.693147180559945,6.49677499018586
"23",1,23,"f","f",1,810,2,"A2","Label","A_Gatoo",19,"F",2,0.693147180559945,6.69703424766648
"24",1,24,"f","f",1,813,2,"A6","Label","A_Gatoo",19,"F",2,0.693147180559945,6.70073110954781
"25",1,253,"f","f",1,734,0,"A3","Label","A_Gatoo",19,"F",2,0.693147180559945,6.59850902861452
"26",1,254,"h","h",1,1483,0,"TestB2","Label","A_Gatoo",19,"F",2,0.693147180559945,7.30182234213793
"27",1,255,"f","f",1,906,0,"A4","Label","A_Gatoo",19,"F",2,0.693147180559945,6.80903930604298
"28",1,256,"f","f",1,766,0,"TestA1","Label","A_Gatoo",19,"F",2,0.693147180559945,6.64118216974059
"29",1,257,"f","f",1,755,0,"A5","Label","A_Gatoo",19,"F",2,0.693147180559945,6.62671774924902
"30",1,258,"h","h",1,722,0,"B5","Label","A_Gatoo",19,"F",2,0.693147180559945,6.58202513889283
"31",1,259,"h","h",1,1028,0,"B6","Label","A_Gatoo",19,"F",2,0.693147180559945,6.93537044601511
"32",1,260,"f","f",1,870,0,"A6","Label","A_Gatoo",19,"F",2,0.693147180559945,6.76849321164863
"33",1,261,"h","h",1,917,0,"TestB1","Label","A_Gatoo",19,"F",2,0.693147180559945,6.82110747225646
"34",1,262,"f","f",1,1220,0,"TestA2","Label","A_Gatoo",19,"F",2,0.693147180559945,7.1066061377273
"35",1,263,"h","h",1,1134,0,"B3","Label","A_Gatoo",19,"F",2,0.693147180559945,7.0335064842877
"36",1,264,"h","h",1,1394,0,"B4","Label","A_Gatoo",19,"F",2,0.693147180559945,7.23993259132047
"37",2,1,"h","f",0,2044,1,"B3","NoLabel","NoName",19,"M",21,3.04452243772342,7.6226639513236
"38",2,2,"f","f",1,1352,1,"A4","NoLabel","NoName",19,"M",21,3.04452243772342,7.20934025660291
"39",2,3,"h","f",0,1564,1,"B2","NoLabel","NoName",19,"M",21,3.04452243772342,7.35500192110526
"40",2,4,"f","f",1,1028,1,"A5","NoLabel","NoName",19,"M",21,3.04452243772342,6.93537044601511
"41",2,5,"h","h",1,840,1,"B5","NoLabel","NoName",19,"M",21,3.04452243772342,6.73340189183736
"42",2,6,"f","f",1,2250,1,"A1","NoLabel","NoName",19,"M",21,3.04452243772342,7.71868549519847
"43",2,7,"h","h",1,2295,1,"B6","NoLabel","NoName",19,"M",21,3.04452243772342,7.73848812249465
"44",2,8,"h","f",0,893,1,"B1","NoLabel","NoName",19,"M",21,3.04452243772342,6.7945865808765
"45",2,9,"h","f",0,1354,1,"B4","NoLabel","NoName",19,"M",21,3.04452243772342,7.21081845347222
"46",2,10,"f","h",0,1807,1,"A3","NoLabel","NoName",19,"M",21,3.04452243772342,7.49942329059223
"47",2,11,"f","f",1,933,1,"A2","NoLabel","NoName",19,"M",21,3.04452243772342,6.83840520084734
"48",2,12,"f","f",1,986,1,"A6","NoLabel","NoName",19,"M",21,3.04452243772342,6.89365635460264
"49",2,13,"f","f",1,2092,2,"A3","NoLabel","NoName",19,"M",21,3.04452243772342,7.64587582518481
"50",2,14,"f","h",0,1191,2,"A1","NoLabel","NoName",19,"M",21,3.04452243772342,7.0825485693553
"51",2,15,"f","f",1,875,2,"A4","NoLabel","NoName",19,"M",21,3.04452243772342,6.77422388635761
"52",2,16,"h","h",1,1786,2,"B5","NoLabel","NoName",19,"M",21,3.04452243772342,7.48773376143644
"53",2,17,"h","f",0,907,2,"B2","NoLabel","NoName",19,"M",21,3.04452243772342,6.81014245011514
"54",2,18,"h","h",1,1812,2,"B4","NoLabel","NoName",19,"M",21,3.04452243772342,7.50218648660292
"55",2,19,"h","f",0,3931,2,"B6","NoLabel","NoName",19,"M",21,3.04452243772342,8.27664912542186
"56",2,20,"h","h",1,979,2,"B1","NoLabel","NoName",19,"M",21,3.04452243772342,6.88653164253051
"57",2,21,"f","f",1,1878,2,"A5","NoLabel","NoName",19,"M",21,3.04452243772342,7.53796265976821
"58",2,22,"f","h",0,1496,2,"A2","NoLabel","NoName",19,"M",21,3.04452243772342,7.31055015853442
"59",2,23,"h","f",0,775,2,"B3","NoLabel","NoName",19,"M",21,3.04452243772342,6.65286302935335
"60",2,24,"f","h",0,564,2,"A6","NoLabel","NoName",19,"M",21,3.04452243772342,6.33505425149806
"61",2,25,"h","f",0,580,3,"B4","NoLabel","NoName",19,"M",21,3.04452243772342,6.36302810354046
"62",2,26,"h","f",0,389,3,"B1","NoLabel","NoName",19,"M",21,3.04452243772342,5.96357934361845
"63",2,27,"h","h",1,1121,3,"B5","NoLabel","NoName",19,"M",21,3.04452243772342,7.02197642307216
"64",2,28,"f","f",1,378,3,"A6","NoLabel","NoName",19,"M",21,3.04452243772342,5.93489419561959
"65",2,29,"h","f",0,688,3,"B3","NoLabel","NoName",19,"M",21,3.04452243772342,6.53378883793334
"66",2,30,"f","h",0,802,3,"A2","NoLabel","NoName",19,"M",21,3.04452243772342,6.68710860786651
"67",2,31,"h","f",0,629,3,"B6","NoLabel","NoName",19,"M",21,3.04452243772342,6.44413125670044
"68",2,32,"h","h",1,1309,3,"B2","NoLabel","NoName",19,"M",21,3.04452243772342,7.1770187659099
"69",2,33,"f","h",0,1188,3,"A3","NoLabel","NoName",19,"M",21,3.04452243772342,7.08002649992259
"70",2,34,"f","f",1,604,3,"A1","NoLabel","NoName",19,"M",21,3.04452243772342,6.40357419793482
"71",2,35,"f","f",1,708,3,"A4","NoLabel","NoName",19,"M",21,3.04452243772342,6.56244409369372
"72",2,36,"f","f",1,2110,3,"A5","NoLabel","NoName",19,"M",21,3.04452243772342,7.65444322647011
"73",2,37,"f","f",1,327,4,"A2","NoLabel","NoName",19,"M",21,3.04452243772342,5.78996017089725
"74",2,38,"h","f",0,572,4,"B2","NoLabel","NoName",19,"M",21,3.04452243772342,6.3491389913798
"75",2,39,"f","h",0,1061,4,"A4","NoLabel","NoName",19,"M",21,3.04452243772342,6.96696713861398
"76",2,40,"f","f",1,1241,4,"A3","NoLabel","NoName",19,"M",21,3.04452243772342,7.12367278520461
"77",2,41,"h","f",0,1506,4,"B4","NoLabel","NoName",19,"M",21,3.04452243772342,7.31721240835984
"78",2,42,"f","h",0,593,4,"A6","NoLabel","NoName",19,"M",21,3.04452243772342,6.38519439899773
"79",2,43,"h","f",0,731,4,"B1","NoLabel","NoName",19,"M",21,3.04452243772342,6.59441345974978
"80",2,44,"f","h",0,519,4,"A5","NoLabel","NoName",19,"M",21,3.04452243772342,6.25190388316589
"81",2,45,"f","f",1,679,4,"A1","NoLabel","NoName",19,"M",21,3.04452243772342,6.5206211275587
"82",2,46,"h","f",0,1062,4,"B6","NoLabel","NoName",19,"M",21,3.04452243772342,6.96790920180188
"83",2,47,"h","f",0,1379,4,"B3","NoLabel","NoName",19,"M",21,3.04452243772342,7.2291138777933
"84",2,48,"h","h",1,583,4,"B5","NoLabel","NoName",19,"M",21,3.04452243772342,6.36818718635049
"85",2,49,"f","f",1,644,5,"A4","NoLabel","NoName",19,"M",21,3.04452243772342,6.46769872610435
"86",2,50,"f","f",1,649,5,"A2","NoLabel","NoName",19,"M",21,3.04452243772342,6.47543271670409
"87",2,51,"f","f",1,682,5,"A1","NoLabel","NoName",19,"M",21,3.04452243772342,6.52502965784346
"88",2,52,"h","f",0,5296,5,"B4","NoLabel","NoName",19,"M",21,3.04452243772342,8.57470709761684
"89",2,53,"h","h",1,3645,5,"B6","NoLabel","NoName",19,"M",21,3.04452243772342,8.20111164444276
"90",2,54,"h","f",0,4367,5,"B1","NoLabel","NoName",19,"M",21,3.04452243772342,8.38183155348556
"91",2,55,"h","h",1,1214,5,"B2","NoLabel","NoName",19,"M",21,3.04452243772342,7.10167597161944
"92",2,56,"h","f",0,222,5,"B5","NoLabel","NoName",19,"M",21,3.04452243772342,5.40267738187228
"93",2,57,"h","h",1,793,5,"B3","NoLabel","NoName",19,"M",21,3.04452243772342,6.67582322163485
"94",2,58,"f","f",1,795,5,"A6","NoLabel","NoName",19,"M",21,3.04452243772342,6.67834211465433
"95",2,59,"f","f",1,530,5,"A5","NoLabel","NoName",19,"M",21,3.04452243772342,6.27287700654617
"96",2,60,"f","f",1,524,5,"A3","NoLabel","NoName",19,"M",21,3.04452243772342,6.26149168432104
"97",2,61,"h","f",0,231,6,"B5","NoLabel","NoName",19,"M",21,3.04452243772342,5.44241771052179
"98",2,62,"h","h",1,633,6,"B6","NoLabel","NoName",19,"M",21,3.04452243772342,6.45047042214418
"99",2,63,"f","f",1,1143,6,"A1","NoLabel","NoName",19,"M",21,3.04452243772342,7.04141166379481
"100",2,64,"f","f",1,1919,6,"A5","NoLabel","NoName",19,"M",21,3.04452243772342,7.5595594960077
"101",2,65,"f","h",0,1088,6,"A6","NoLabel","NoName",19,"M",21,3.04452243772342,6.99209642741589
"102",2,66,"h","f",0,654,6,"B3","NoLabel","NoName",19,"M",21,3.04452243772342,6.4831073514572
"103",2,67,"h","f",0,1070,6,"B4","NoLabel","NoName",19,"M",21,3.04452243772342,6.97541392745595
"104",2,68,"h","h",1,735,6,"B1","NoLabel","NoName",19,"M",21,3.04452243772342,6.59987049921284
"105",2,69,"f","f",1,2281,6,"A3","NoLabel","NoName",19,"M",21,3.04452243772342,7.73236922228439
"106",2,70,"f","f",1,380,6,"A4","NoLabel","NoName",19,"M",21,3.04452243772342,5.94017125272043
"107",2,71,"f","f",1,1690,6,"A2","NoLabel","NoName",19,"M",21,3.04452243772342,7.43248380791712
"108",2,72,"h","f",0,NA,6,"B2","NoLabel","NoName",19,"M",21,3.04452243772342,NA
"109",2,73,"f","h",0,591,7,"A3","NoLabel","NoName",19,"M",21,3.04452243772342,6.3818160174061
"110",2,74,"h","f",0,993,7,"B1","NoLabel","NoName",19,"M",21,3.04452243772342,6.90073066404517
"111",2,75,"h","f",0,1646,7,"B6","NoLabel","NoName",19,"M",21,3.04452243772342,7.40610338123702
"112",2,76,"f","h",0,611,7,"A2","NoLabel","NoName",19,"M",21,3.04452243772342,6.4150969591716
"113",2,77,"h","f",0,1599,7,"B5","NoLabel","NoName",19,"M",21,3.04452243772342,7.37713371283395
"114",2,78,"f","h",0,246,7,"A1","NoLabel","NoName",19,"M",21,3.04452243772342,5.50533153593236
"115",2,79,"h","f",0,2129,7,"B3","NoLabel","NoName",19,"M",21,3.04452243772342,7.66340766489348
"116",2,80,"f","f",1,680,7,"A4","NoLabel","NoName",19,"M",21,3.04452243772342,6.52209279817015
"117",2,81,"f","f",1,NA,7,"A5","NoLabel","NoName",19,"M",21,3.04452243772342,NA
"118",2,82,"h","f",0,613,7,"B2","NoLabel","NoName",19,"M",21,3.04452243772342,6.41836493593621
"119",2,83,"f","h",0,426,7,"A6","NoLabel","NoName",19,"M",21,3.04452243772342,6.05443934626937
"120",2,84,"h","f",0,364,7,"B4","NoLabel","NoName",19,"M",21,3.04452243772342,5.89715386763674
"121",2,85,"f","h",0,662,8,"A5","NoLabel","NoName",19,"M",21,3.04452243772342,6.49526555593701
"122",2,86,"h","f",0,640,8,"B4","NoLabel","NoName",19,"M",21,3.04452243772342,6.46146817635372
"123",2,87,"f","h",0,1199,8,"A2","NoLabel","NoName",19,"M",21,3.04452243772342,7.08924315502751
"124",2,88,"h","f",0,391,8,"B5","NoLabel","NoName",19,"M",21,3.04452243772342,5.96870755998537
"125",2,89,"h","h",1,494,8,"B1","NoLabel","NoName",19,"M",21,3.04452243772342,6.20253551718792
"126",2,90,"h","f",0,250,8,"B3","NoLabel","NoName",19,"M",21,3.04452243772342,5.52146091786225
"127",2,91,"f","h",0,1551,8,"A3","NoLabel","NoName",19,"M",21,3.04452243772342,7.34665516317654
"128",2,92,"f","f",1,913,8,"A4","NoLabel","NoName",19,"M",21,3.04452243772342,6.81673588059497
"129",2,93,"f","f",1,373,8,"A1","NoLabel","NoName",19,"M",21,3.04452243772342,5.92157841964382
"130",2,94,"h","f",0,893,8,"B6","NoLabel","NoName",19,"M",21,3.04452243772342,6.7945865808765
"131",2,95,"h","f",0,2368,8,"B2","NoLabel","NoName",19,"M",21,3.04452243772342,7.7698009960039
"132",2,96,"f","h",0,4744,8,"A6","NoLabel","NoName",19,"M",21,3.04452243772342,8.46463594067756
"133",2,97,"f","f",1,1268,9,"A3","NoLabel","NoName",19,"M",21,3.04452243772342,7.14519613499717
"134",2,98,"f","f",1,2773,9,"A4","NoLabel","NoName",19,"M",21,3.04452243772342,7.92768504561578
"135",2,99,"h","f",0,1130,9,"B2","NoLabel","NoName",19,"M",21,3.04452243772342,7.02997291170639
"136",2,100,"f","h",0,268,9,"A1","NoLabel","NoName",19,"M",21,3.04452243772342,5.59098698051086
"137",2,101,"f","f",1,1175,9,"A5","NoLabel","NoName",19,"M",21,3.04452243772342,7.06902342657826
"138",2,102,"h","h",1,246,9,"B6","NoLabel","NoName",19,"M",21,3.04452243772342,5.50533153593236
"139",2,103,"h","h",1,516,9,"B4","NoLabel","NoName",19,"M",21,3.04452243772342,6.24610676548156
"140",2,104,"f","h",0,218,9,"A2","NoLabel","NoName",19,"M",21,3.04452243772342,5.38449506278909
"141",2,105,"h","f",0,4070,9,"B3","NoLabel","NoName",19,"M",21,3.04452243772342,8.31139827843664
"142",2,106,"h","h",1,894,9,"B1","NoLabel","NoName",19,"M",21,3.04452243772342,6.79570577517351
"143",2,107,"f","h",0,5636,9,"A6","NoLabel","NoName",19,"M",21,3.04452243772342,8.63692987301857
"144",2,108,"h","f",0,549,9,"B5","NoLabel","NoName",19,"M",21,3.04452243772342,6.30809844150953
"145",2,109,"h","h",1,930,10,"B2","NoLabel","NoName",19,"M",21,3.04452243772342,6.8351845861473
"146",2,110,"f","f",1,2013,10,"A3","NoLabel","NoName",19,"M",21,3.04452243772342,7.60738142563979
"147",2,111,"f","f",1,3139,10,"A1","NoLabel","NoName",19,"M",21,3.04452243772342,8.05165955684195
"148",2,112,"h","f",0,3573,10,"B1","NoLabel","NoName",19,"M",21,3.04452243772342,8.18116085802341
"149",2,113,"f","f",1,942,10,"A6","NoLabel","NoName",19,"M",21,3.04452243772342,6.84800527457636
"150",2,114,"f","f",1,818,10,"A2","NoLabel","NoName",19,"M",21,3.04452243772342,6.70686233660275
"151",2,115,"h","f",0,1228,10,"B5","NoLabel","NoName",19,"M",21,3.04452243772342,7.11314210870709
"152",2,116,"h","f",0,1138,10,"B3","NoLabel","NoName",19,"M",21,3.04452243772342,7.03702761468628
"153",2,117,"f","f",1,1319,10,"A4","NoLabel","NoName",19,"M",21,3.04452243772342,7.18462915271731
"154",2,118,"h","h",1,838,10,"B4","NoLabel","NoName",19,"M",21,3.04452243772342,6.73101810048208
"155",2,119,"h","h",1,1177,10,"B6","NoLabel","NoName",19,"M",21,3.04452243772342,7.07072410726028
"156",2,120,"f","h",0,720,10,"A5","NoLabel","NoName",19,"M",21,3.04452243772342,6.5792512120101
"157",2,121,"f","f",1,2185,11,"A4","NoLabel","NoName",19,"M",21,3.04452243772342,7.68937110752969
"158",2,122,"h","f",0,1149,11,"B6","NoLabel","NoName",19,"M",21,3.04452243772342,7.04664727784876
"159",2,123,"f","f",1,540,11,"A5","NoLabel","NoName",19,"M",21,3.04452243772342,6.29156913955832
"160",2,124,"h","f",0,1613,11,"B1","NoLabel","NoName",19,"M",21,3.04452243772342,7.38585107812521
"161",2,125,"f","f",1,1550,11,"A1","NoLabel","NoName",19,"M",21,3.04452243772342,7.34601020991329
"162",2,126,"f","f",1,NA,11,"A2","NoLabel","NoName",19,"M",21,3.04452243772342,NA
"163",2,127,"f","f",1,1174,11,"A6","NoLabel","NoName",19,"M",21,3.04452243772342,7.06817200038804
"164",2,128,"h","f",0,1705,11,"B2","NoLabel","NoName",19,"M",21,3.04452243772342,7.44132038971762
"165",2,129,"h","h",1,776,11,"B4","NoLabel","NoName",19,"M",21,3.04452243772342,6.65415252018322
"166",2,130,"h","f",0,2351,11,"B3","NoLabel","NoName",19,"M",21,3.04452243772342,7.76259604854007
"167",2,131,"h","h",1,1664,11,"B5","NoLabel","NoName",19,"M",21,3.04452243772342,7.41697962138115
"168",2,132,"f","f",1,4146,11,"A3","NoLabel","NoName",19,"M",21,3.04452243772342,8.32989929299572
"169",2,133,"h","f",0,4451,12,"B2","NoLabel","NoName",19,"M",21,3.04452243772342,8.40088406901585
"170",2,134,"h","h",1,2225,12,"B5","NoLabel","NoName",19,"M",21,3.04452243772342,7.70751219460034
"171",2,135,"f","h",0,1468,12,"A4","NoLabel","NoName",19,"M",21,3.04452243772342,7.29165620917446
"172",2,136,"h","f",0,920,12,"B3","NoLabel","NoName",19,"M",21,3.04452243772342,6.82437367004309
"173",2,137,"f","f",1,753,12,"A1","NoLabel","NoName",19,"M",21,3.04452243772342,6.62406522779989
"174",2,138,"f","f",1,NA,12,"A3","NoLabel","NoName",19,"M",21,3.04452243772342,NA
"175",2,139,"h","f",0,4694,12,"B6","NoLabel","NoName",19,"M",21,3.04452243772342,8.45404037641097
"176",2,140,"h","f",0,3342,12,"B1","NoLabel","NoName",19,"M",21,3.04452243772342,8.11432470915534
"177",2,141,"f","f",1,2981,12,"A6","NoLabel","NoName",19,"M",21,3.04452243772342,8.00001409367807
"178",2,142,"f","f",1,1687,12,"A5","NoLabel","NoName",19,"M",21,3.04452243772342,7.43070708254597
"179",2,143,"f","h",0,1350,12,"A2","NoLabel","NoName",19,"M",21,3.04452243772342,7.20785987143248
"180",2,144,"h","h",1,1490,12,"B4","NoLabel","NoName",19,"M",21,3.04452243772342,7.30653139893951
"181",2,145,"h","f",0,1881,13,"B2","NoLabel","NoName",19,"M",21,3.04452243772342,7.53955882930103
"182",2,146,"h","f",0,943,13,"B4","NoLabel","NoName",19,"M",21,3.04452243772342,6.84906628263346
"183",2,147,"h","f",0,2664,13,"B6","NoLabel","NoName",19,"M",21,3.04452243772342,7.88758403166028
"184",2,148,"h","f",0,2790,13,"B5","NoLabel","NoName",19,"M",21,3.04452243772342,7.93379687481541
"185",2,149,"f","h",0,809,13,"A1","NoLabel","NoName",19,"M",21,3.04452243772342,6.69579891705849
"186",2,150,"f","f",1,1062,13,"A2","NoLabel","NoName",19,"M",21,3.04452243772342,6.96790920180188
"187",2,151,"f","f",1,772,13,"A4","NoLabel","NoName",19,"M",21,3.04452243772342,6.64898455002478
"188",2,152,"h","f",0,3691,13,"B3","NoLabel","NoName",19,"M",21,3.04452243772342,8.21365270303
"189",2,153,"h","f",0,711,13,"B1","NoLabel","NoName",19,"M",21,3.04452243772342,6.56667242980324
"190",2,154,"f","h",0,356,13,"A3","NoLabel","NoName",19,"M",21,3.04452243772342,5.87493073085203
"191",2,155,"f","f",1,571,13,"A6","NoLabel","NoName",19,"M",21,3.04452243772342,6.34738920965601
"192",2,156,"f","h",0,3626,13,"A5","NoLabel","NoName",19,"M",21,3.04452243772342,8.1958853913148
"193",2,157,"h","h",1,5195,14,"B2","NoLabel","NoName",19,"M",21,3.04452243772342,8.55545190353333
"194",2,158,"h","h",1,5068,14,"B1","NoLabel","NoName",19,"M",21,3.04452243772342,8.53070154144103
"195",2,159,"f","h",0,3080,14,"A1","NoLabel","NoName",19,"M",21,3.04452243772342,8.03268487596762
"196",2,160,"h","f",0,1557,14,"B6","NoLabel","NoName",19,"M",21,3.04452243772342,7.350516171834
"197",2,161,"h","h",1,757,14,"B4","NoLabel","NoName",19,"M",21,3.04452243772342,6.62936325343745
"198",2,162,"h","f",0,983,14,"B5","NoLabel","NoName",19,"M",21,3.04452243772342,6.89060912014717
"199",2,163,"f","f",1,464,14,"A2","NoLabel","NoName",19,"M",21,3.04452243772342,6.13988455222626
"200",2,164,"f","f",1,410,14,"A4","NoLabel","NoName",19,"M",21,3.04452243772342,6.01615715969835
"201",2,165,"h","f",0,2419,14,"B3","NoLabel","NoName",19,"M",21,3.04452243772342,7.79110951061003
"202",2,166,"f","h",0,695,14,"A6","NoLabel","NoName",19,"M",21,3.04452243772342,6.54391184556479
"203",2,167,"f","h",0,1390,14,"A3","NoLabel","NoName",19,"M",21,3.04452243772342,7.23705902612474
"204",2,168,"f","f",1,559,14,"A5","NoLabel","NoName",19,"M",21,3.04452243772342,6.3261494731551
"205",2,169,"f","f",1,1249,15,"A5","NoLabel","NoName",19,"M",21,3.04452243772342,7.13009851012558
"206",2,170,"h","f",0,875,15,"B1","NoLabel","NoName",19,"M",21,3.04452243772342,6.77422388635761
"207",2,171,"h","h",1,700,15,"B5","NoLabel","NoName",19,"M",21,3.04452243772342,6.5510803350434
"208",2,172,"f","h",0,3374,15,"A3","NoLabel","NoName",19,"M",21,3.04452243772342,8.12385426310591
"209",2,173,"h","f",0,1867,15,"B3","NoLabel","NoName",19,"M",21,3.04452243772342,7.53208814354172
"210",2,174,"f","f",1,939,15,"A4","NoLabel","NoName",19,"M",21,3.04452243772342,6.84481547920826
"211",2,175,"h","f",0,675,15,"B4","NoLabel","NoName",19,"M",21,3.04452243772342,6.51471269087253
"212",2,176,"h","f",0,7745,15,"B6","NoLabel","NoName",19,"M",21,3.04452243772342,8.95480275285097
"213",2,177,"f","f",1,4732,15,"A2","NoLabel","NoName",19,"M",21,3.04452243772342,8.46210322509828
"214",2,178,"h","f",0,1065,15,"B2","NoLabel","NoName",19,"M",21,3.04452243772342,6.97073007814353
"215",2,179,"f","h",0,1216,15,"A1","NoLabel","NoName",19,"M",21,3.04452243772342,7.10332206252611
"216",2,180,"f","f",1,2352,15,"A6","NoLabel","NoName",19,"M",21,3.04452243772342,7.76302130901852
"217",2,181,"f","f",1,2073,16,"A1","NoLabel","NoName",19,"M",21,3.04452243772342,7.63675211243578
"218",2,182,"f","f",1,328,16,"A3","NoLabel","NoName",19,"M",21,3.04452243772342,5.79301360838414
"219",2,183,"f","f",1,5650,16,"A2","NoLabel","NoName",19,"M",21,3.04452243772342,8.63941082414049
"220",2,184,"h","f",0,3820,16,"B5","NoLabel","NoName",19,"M",21,3.04452243772342,8.24800570160062
"221",2,185,"h","f",0,2202,16,"B1","NoLabel","NoName",19,"M",21,3.04452243772342,7.69712131728263
"222",2,186,"h","h",1,3794,16,"B4","NoLabel","NoName",19,"M",21,3.04452243772342,8.24117615049496
"223",2,187,"h","f",0,5576,16,"B6","NoLabel","NoName",19,"M",21,3.04452243772342,8.62622695244036
"224",2,188,"h","f",0,3637,16,"B3","NoLabel","NoName",19,"M",21,3.04452243772342,8.19891444498699
"225",2,189,"h","h",1,4420,16,"B2","NoLabel","NoName",19,"M",21,3.04452243772342,8.39389497507174
"226",2,190,"f","h",0,468,16,"A4","NoLabel","NoName",19,"M",21,3.04452243772342,6.14846829591765
"227",2,191,"f","h",0,4585,16,"A6","NoLabel","NoName",19,"M",21,3.04452243772342,8.43054538469057
"228",2,192,"f","f",1,1086,16,"A5","NoLabel","NoName",19,"M",21,3.04452243772342,6.99025650049388
"229",2,193,"h","h",1,2542,17,"B1","NoLabel","NoName",19,"M",21,3.04452243772342,7.8407064517494
"230",2,194,"f","f",1,3940,17,"A6","NoLabel","NoName",19,"M",21,3.04452243772342,8.27893600229198
"231",2,195,"h","f",0,4900,17,"B6","NoLabel","NoName",19,"M",21,3.04452243772342,8.49699048409872
"232",2,196,"f","h",0,881,17,"A5","NoLabel","NoName",19,"M",21,3.04452243772342,6.78105762593618
"233",2,197,"f","f",1,3625,17,"A3","NoLabel","NoName",19,"M",21,3.04452243772342,8.19560956728878
"234",2,198,"h","f",0,2222,17,"B4","NoLabel","NoName",19,"M",21,3.04452243772342,7.70616297019958
"235",2,199,"h","h",1,541,17,"B2","NoLabel","NoName",19,"M",21,3.04452243772342,6.29341927884648
"236",2,200,"h","f",0,1287,17,"B3","NoLabel","NoName",19,"M",21,3.04452243772342,7.16006920759613
"237",2,201,"h","f",0,4569,17,"B5","NoLabel","NoName",19,"M",21,3.04452243772342,8.42704964156327
"238",2,202,"f","h",0,953,17,"A2","NoLabel","NoName",19,"M",21,3.04452243772342,6.8596149036542
"239",2,203,"f","h",0,905,17,"A4","NoLabel","NoName",19,"M",21,3.04452243772342,6.80793494369993
"240",2,204,"f","f",1,615,17,"A1","NoLabel","NoName",19,"M",21,3.04452243772342,6.42162226780652
"241",2,205,"h","f",0,339,18,"B1","NoLabel","NoName",19,"M",21,3.04452243772342,5.82600010738045
"242",2,206,"h","f",0,454,18,"B6","NoLabel","NoName",19,"M",21,3.04452243772342,6.11809719804135
"243",2,207,"f","f",1,1838,18,"A5","NoLabel","NoName",19,"M",21,3.04452243772342,7.51643330291563
"244",2,208,"h","f",0,1090,18,"B2","NoLabel","NoName",19,"M",21,3.04452243772342,6.99393297522319
"245",2,209,"f","f",1,363,18,"A4","NoLabel","NoName",19,"M",21,3.04452243772342,5.89440283426485
"246",2,210,"h","h",1,3406,18,"B4","NoLabel","NoName",19,"M",21,3.04452243772342,8.13329386122263
"247",2,211,"f","f",1,4090,18,"A1","NoLabel","NoName",19,"M",21,3.04452243772342,8.31630024903685
"248",2,212,"f","f",1,2268,18,"A3","NoLabel","NoName",19,"M",21,3.04452243772342,7.72665366484764
"249",2,213,"f","h",0,1020,18,"A2","NoLabel","NoName",19,"M",21,3.04452243772342,6.92755790627832
"250",2,214,"f","h",0,1255,18,"A6","NoLabel","NoName",19,"M",21,3.04452243772342,7.13489085156588
"251",2,215,"h","f",0,621,18,"B3","NoLabel","NoName",19,"M",21,3.04452243772342,6.43133108193348
"252",2,216,"h","f",0,730,18,"B5","NoLabel","NoName",19,"M",21,3.04452243772342,6.59304453414244
"253",2,217,"h","f",0,1299,19,"B3","NoLabel","NoName",19,"M",21,3.04452243772342,7.1693500166706
"254",2,218,"h","f",0,2688,19,"B6","NoLabel","NoName",19,"M",21,3.04452243772342,7.89655270164304
"255",2,219,"f","f",1,4513,19,"A1","NoLabel","NoName",19,"M",21,3.04452243772342,8.414717399827
"256",2,220,"h","f",0,NA,19,"B4","NoLabel","NoName",19,"M",21,3.04452243772342,NA
"257",2,221,"h","f",0,707,19,"B5","NoLabel","NoName",19,"M",21,3.04452243772342,6.56103066589657
"258",2,222,"f","f",1,927,19,"A4","NoLabel","NoName",19,"M",21,3.04452243772342,6.83195356556585
"259",2,223,"f","f",1,2321,19,"A2","NoLabel","NoName",19,"M",21,3.04452243772342,7.74975340627444
"260",2,224,"h","f",0,601,19,"B1","NoLabel","NoName",19,"M",21,3.04452243772342,6.39859493453521
"261",2,225,"f","f",1,3224,19,"A6","NoLabel","NoName",19,"M",21,3.04452243772342,8.07837810362652
"262",2,226,"f","f",1,1052,19,"A3","NoLabel","NoName",19,"M",21,3.04452243772342,6.95844839329766
"263",2,227,"h","f",0,892,19,"B2","NoLabel","NoName",19,"M",21,3.04452243772342,6.79346613258001
"264",2,228,"f","f",1,6700,19,"A5","NoLabel","NoName",19,"M",21,3.04452243772342,8.80986280537906
"265",2,229,"f","h",0,791,20,"A5","NoLabel","NoName",19,"M",21,3.04452243772342,6.67329796776765
"266",2,230,"f","f",1,2292,20,"A3","NoLabel","NoName",19,"M",21,3.04452243772342,7.73718007783463
"267",2,231,"h","h",1,2932,20,"B1","NoLabel","NoName",19,"M",21,3.04452243772342,7.98344006300654
"268",2,232,"h","f",0,364,20,"B5","NoLabel","NoName",19,"M",21,3.04452243772342,5.89715386763674
"269",2,233,"f","h",0,4538,20,"A4","NoLabel","NoName",19,"M",21,3.04452243772342,8.42024166533979
"270",2,234,"h","f",0,2353,20,"B3","NoLabel","NoName",19,"M",21,3.04452243772342,7.76344638872736
"271",2,235,"h","h",1,NA,20,"B2","NoLabel","NoName",19,"M",21,3.04452243772342,NA
"272",2,236,"h","h",1,1792,20,"B6","NoLabel","NoName",19,"M",21,3.04452243772342,7.49108759353488
"273",2,237,"f","h",0,4630,20,"A2","NoLabel","NoName",19,"M",21,3.04452243772342,8.44031214708028
"274",2,238,"h","f",0,1098,20,"B4","NoLabel","NoName",19,"M",21,3.04452243772342,7.00124562206948
"275",2,239,"f","h",0,4650,20,"A1","NoLabel","NoName",19,"M",21,3.04452243772342,8.4446224985814
"276",2,240,"f","f",1,4508,20,"A6","NoLabel","NoName",19,"M",21,3.04452243772342,8.41360887515967
"277",2,241,"f","h",0,1862,21,"A6","NoLabel","NoName",19,"M",21,3.04452243772342,7.52940645783701
"278",2,242,"f","f",1,2042,21,"A2","NoLabel","NoName",19,"M",21,3.04452243772342,7.62168499872461
"279",2,243,"h","h",1,2862,21,"B4","NoLabel","NoName",19,"M",21,3.04452243772342,7.9592759601164
"280",2,244,"f","f",1,668,21,"A4","NoLabel","NoName",19,"M",21,3.04452243772342,6.50428817353665
"281",2,245,"f","f",1,613,21,"A5","NoLabel","NoName",19,"M",21,3.04452243772342,6.41836493593621
"282",2,246,"h","h",1,859,21,"B3","NoLabel","NoName",19,"M",21,3.04452243772342,6.75576892198425
"283",2,247,"f","f",1,NA,21,"A1","NoLabel","NoName",19,"M",21,3.04452243772342,NA
"284",2,248,"h","h",1,937,21,"B2","NoLabel","NoName",19,"M",21,3.04452243772342,6.84268328223842
"285",2,249,"h","h",1,608,21,"B1","NoLabel","NoName",19,"M",21,3.04452243772342,6.41017488196617
"286",2,250,"f","f",1,4450,21,"A3","NoLabel","NoName",19,"M",21,3.04452243772342,8.40065937516029
"287",2,251,"h","f",0,3591,21,"B6","NoLabel","NoName",19,"M",21,3.04452243772342,8.18618599422608
"288",2,252,"h","h",1,7023,21,"B5","NoLabel","NoName",19,"M",21,3.04452243772342,8.85694575615902
"289",2,253,"h","f",0,NA,0,"B6","NoLabel","NoName",19,"M",21,3.04452243772342,NA
"290",2,254,"f","f",1,8391,0,"A5","NoLabel","NoName",19,"M",21,3.04452243772342,9.03491498187007
"291",2,255,"h","h",1,1979,0,"B3","NoLabel","NoName",19,"M",21,3.04452243772342,7.59034694560257
"292",2,256,"f","h",0,1135,0,"TestA1","NoLabel","NoName",19,"M",21,3.04452243772342,7.0343879299155
"293",2,257,"f","h",0,4120,0,"TestA2","NoLabel","NoName",19,"M",21,3.04452243772342,8.32360844234357
"294",2,258,"f","f",1,3262,0,"A3","NoLabel","NoName",19,"M",21,3.04452243772342,8.09009578318096
"295",2,259,"h","f",0,403,0,"TestB2","NoLabel","NoName",19,"M",21,3.04452243772342,5.99893656194668
"296",2,260,"f","h",0,338,0,"A6","NoLabel","NoName",19,"M",21,3.04452243772342,5.82304589548302
"297",2,261,"h","f",0,259,0,"TestB1","NoLabel","NoName",19,"M",21,3.04452243772342,5.55682806169954
"298",2,262,"f","h",0,225,0,"A4","NoLabel","NoName",19,"M",21,3.04452243772342,5.41610040220442
"299",2,263,"h","h",1,740,0,"B4","NoLabel","NoName",19,"M",21,3.04452243772342,6.60665018619822
"300",2,264,"h","f",0,318,0,"B5","NoLabel","NoName",19,"M",21,3.04452243772342,5.76205138278018
"301",3,1,"f","f",1,1430,1,"A2","NoLabel","NoName",19,"F",4,1.38629436111989,7.26542972325395
"302",3,2,"h","f",0,1300,1,"B1","NoLabel","NoName",19,"F",4,1.38629436111989,7.17011954344963
"303",3,3,"h","f",0,2412,1,"B5","NoLabel","NoName",19,"F",4,1.38629436111989,7.78821155784708
"304",3,4,"f","f",1,1581,1,"A1","NoLabel","NoName",19,"F",4,1.38629436111989,7.36581283720947
"305",3,5,"h","h",1,2552,1,"B2","NoLabel","NoName",19,"F",4,1.38629436111989,7.84463264446468
"306",3,6,"h","h",1,1786,1,"B6","NoLabel","NoName",19,"F",4,1.38629436111989,7.48773376143644
"307",3,7,"f","h",0,1794,1,"A5","NoLabel","NoName",19,"F",4,1.38629436111989,7.49220304261874
"308",3,8,"f","f",1,4130,1,"A6","NoLabel","NoName",19,"F",4,1.38629436111989,8.32603268595508
"309",3,9,"f","f",1,1849,1,"A3","NoLabel","NoName",19,"F",4,1.38629436111989,7.52240023138712
"310",3,10,"h","h",1,1090,1,"B4","NoLabel","NoName",19,"F",4,1.38629436111989,6.99393297522319
"311",3,11,"h","h",1,1531,1,"B3","NoLabel","NoName",19,"F",4,1.38629436111989,7.33367639565768
"312",3,12,"f","f",1,4090,1,"A4","NoLabel","NoName",19,"F",4,1.38629436111989,8.31630024903685
"313",3,13,"h","h",1,4588,2,"B1","NoLabel","NoName",19,"F",4,1.38629436111989,8.43119947824926
"314",3,14,"f","f",1,966,2,"A6","NoLabel","NoName",19,"F",4,1.38629436111989,6.87316383421252
"315",3,15,"f","f",1,2693,2,"A2","NoLabel","NoName",19,"F",4,1.38629436111989,7.8984110928116
"316",3,16,"f","h",0,1173,2,"A4","NoLabel","NoName",19,"F",4,1.38629436111989,7.06731984865348
"317",3,17,"h","h",1,2321,2,"B4","NoLabel","NoName",19,"F",4,1.38629436111989,7.74975340627444
"318",3,18,"f","h",0,1146,2,"A3","NoLabel","NoName",19,"F",4,1.38629436111989,7.04403289727469
"319",3,19,"h","h",1,1251,2,"B3","NoLabel","NoName",19,"F",4,1.38629436111989,7.13169851046691
"320",3,20,"h","h",1,1239,2,"B2","NoLabel","NoName",19,"F",4,1.38629436111989,7.12205988162914
"321",3,21,"f","f",1,1458,2,"A1","NoLabel","NoName",19,"F",4,1.38629436111989,7.2848209125686
"322",3,22,"f","f",1,2694,2,"A5","NoLabel","NoName",19,"F",4,1.38629436111989,7.89878235697031
"323",3,23,"h","h",1,1021,2,"B5","NoLabel","NoName",19,"F",4,1.38629436111989,6.92853781816467
"324",3,24,"h","h",1,1056,2,"B6","NoLabel","NoName",19,"F",4,1.38629436111989,6.96224346426621
"325",3,25,"h","h",1,855,3,"B3","NoLabel","NoName",19,"F",4,1.38629436111989,6.75110146893676
"326",3,26,"f","f",1,1425,3,"A1","NoLabel","NoName",19,"F",4,1.38629436111989,7.26192709270275
"327",3,27,"h","h",1,943,3,"B4","NoLabel","NoName",19,"F",4,1.38629436111989,6.84906628263346
"328",3,28,"h","h",1,1105,3,"B5","NoLabel","NoName",19,"F",4,1.38629436111989,7.00760061395185
"329",3,29,"h","h",1,914,3,"B1","NoLabel","NoName",19,"F",4,1.38629436111989,6.81783057145415
"330",3,30,"f","h",0,2323,3,"A4","NoLabel","NoName",19,"F",4,1.38629436111989,7.75061473277041
"331",3,31,"f","f",1,1215,3,"A3","NoLabel","NoName",19,"F",4,1.38629436111989,7.10249935577465
"332",3,32,"h","h",1,2098,3,"B2","NoLabel","NoName",19,"F",4,1.38629436111989,7.64873978895624
"333",3,33,"f","f",1,1317,3,"A5","NoLabel","NoName",19,"F",4,1.38629436111989,7.18311170174328
"334",3,34,"h","h",1,875,3,"B6","NoLabel","NoName",19,"F",4,1.38629436111989,6.77422388635761
"335",3,35,"f","f",1,1159,3,"A6","NoLabel","NoName",19,"F",4,1.38629436111989,7.05531284333975
"336",3,36,"f","f",1,1022,3,"A2","NoLabel","NoName",19,"F",4,1.38629436111989,6.92951677076365
"337",3,37,"h","h",1,974,4,"B6","NoLabel","NoName",19,"F",4,1.38629436111989,6.88141130364254
"338",3,38,"f","f",1,1202,4,"A5","NoLabel","NoName",19,"F",4,1.38629436111989,7.09174211509515
"339",3,39,"f","f",1,1531,4,"A4","NoLabel","NoName",19,"F",4,1.38629436111989,7.33367639565768
"340",3,40,"f","f",1,877,4,"A1","NoLabel","NoName",19,"F",4,1.38629436111989,6.77650699237218
"341",3,41,"f","f",1,1051,4,"A2","NoLabel","NoName",19,"F",4,1.38629436111989,6.95749737087695
"342",3,42,"h","h",1,2849,4,"B1","NoLabel","NoName",19,"F",4,1.38629436111989,7.95472333449791
"343",3,43,"h","h",1,1782,4,"B3","NoLabel","NoName",19,"F",4,1.38629436111989,7.48549160803075
"344",3,44,"h","h",1,1070,4,"B4","NoLabel","NoName",19,"F",4,1.38629436111989,6.97541392745595
"345",3,45,"f","f",1,928,4,"A6","NoLabel","NoName",19,"F",4,1.38629436111989,6.8330317327862
"346",3,46,"h","h",1,1052,4,"B2","NoLabel","NoName",19,"F",4,1.38629436111989,6.95844839329766
"347",3,47,"h","h",1,1082,4,"B5","NoLabel","NoName",19,"F",4,1.38629436111989,6.98656645940643
"348",3,48,"f","f",1,1039,4,"A3","NoLabel","NoName",19,"F",4,1.38629436111989,6.94601399109923
"349",3,253,"f","f",1,2030,0,"TestA1","NoLabel","NoName",19,"F",4,1.38629436111989,7.61579107203583
"350",3,254,"h","h",1,830,0,"B5","NoLabel","NoName",19,"F",4,1.38629436111989,6.72142570079064
"351",3,255,"h","h",1,936,0,"B6","NoLabel","NoName",19,"F",4,1.38629436111989,6.84161547647759
"352",3,256,"f","f",1,850,0,"A4","NoLabel","NoName",19,"F",4,1.38629436111989,6.74523634948436
"353",3,257,"h","h",1,862,0,"B3","NoLabel","NoName",19,"F",4,1.38629436111989,6.75925527066369
"354",3,258,"h","h",1,2411,0,"TestB2","NoLabel","NoName",19,"F",4,1.38629436111989,7.78779687818117
"355",3,259,"h","h",1,981,0,"B4","NoLabel","NoName",19,"F",4,1.38629436111989,6.88857245956536
"356",3,260,"f","f",1,1497,0,"A5","NoLabel","NoName",19,"F",4,1.38629436111989,7.31121838441963
"357",3,261,"f","f",1,1575,0,"A3","NoLabel","NoName",19,"F",4,1.38629436111989,7.36201055125973
"358",3,262,"f","f",1,1024,0,"TestA2","NoLabel","NoName",19,"F",4,1.38629436111989,6.93147180559945
"359",3,263,"f","f",1,798,0,"A6","NoLabel","NoName",19,"F",4,1.38629436111989,6.68210859744981
"360",3,264,"h","h",1,745,0,"TestB1","NoLabel","NoName",19,"F",4,1.38629436111989,6.61338421837956
"361",4,1,"f","h",0,1329,1,"A4","Label","A_Saldie",20,"F",6,1.79175946922805,7.19218205871325
"362",4,2,"h","f",0,1201,1,"B1","Label","A_Saldie",20,"F",6,1.79175946922805,7.09090982207998
"363",4,3,"f","f",1,2448,1,"A5","Label","A_Saldie",20,"F",6,1.79175946922805,7.80302664363222
"364",4,4,"h","f",0,1105,1,"B6","Label","A_Saldie",20,"F",6,1.79175946922805,7.00760061395185
"365",4,5,"f","f",1,1789,1,"A6","Label","A_Saldie",20,"F",6,1.79175946922805,7.48941208350872
"366",4,6,"h","h",1,1250,1,"B3","Label","A_Saldie",20,"F",6,1.79175946922805,7.13089883029635
"367",4,7,"f","h",0,1346,1,"A3","Label","A_Saldie",20,"F",6,1.79175946922805,7.20489251020467
"368",4,8,"h","f",0,1960,1,"B2","Label","A_Saldie",20,"F",6,1.79175946922805,7.58069975222456
"369",4,9,"f","h",0,3434,1,"A1","Label","A_Saldie",20,"F",6,1.79175946922805,8.14148104145742
"370",4,10,"f","h",0,2054,1,"A2","Label","A_Saldie",20,"F",6,1.79175946922805,7.6275443904885
"371",4,11,"h","f",0,1869,1,"B5","Label","A_Saldie",20,"F",6,1.79175946922805,7.53315880745556
"372",4,12,"h","h",1,1863,1,"B4","Label","A_Saldie",20,"F",6,1.79175946922805,7.52994337060159
"373",4,13,"h","h",1,1127,2,"B6","Label","A_Saldie",20,"F",6,1.79175946922805,7.02731451403978
"374",4,14,"f","f",1,1164,2,"A5","Label","A_Saldie",20,"F",6,1.79175946922805,7.05961762829138
"375",4,15,"h","f",0,629,2,"B3","Label","A_Saldie",20,"F",6,1.79175946922805,6.44413125670044
"376",4,16,"f","f",1,3055,2,"A4","Label","A_Saldie",20,"F",6,1.79175946922805,8.0245348716057
"377",4,17,"f","f",1,2856,2,"A6","Label","A_Saldie",20,"F",6,1.79175946922805,7.95717732345947
"378",4,18,"f","h",0,1030,2,"A1","Label","A_Saldie",20,"F",6,1.79175946922805,6.93731408122368
"379",4,19,"h","h",1,1436,2,"B1","Label","A_Saldie",20,"F",6,1.79175946922805,7.26961674960817
"380",4,20,"h","h",1,1468,2,"B2","Label","A_Saldie",20,"F",6,1.79175946922805,7.29165620917446
"381",4,21,"f","f",1,1605,2,"A3","Label","A_Saldie",20,"F",6,1.79175946922805,7.38087903556412
"382",4,22,"f","h",0,2936,2,"A2","Label","A_Saldie",20,"F",6,1.79175946922805,7.98480338973441
"383",4,23,"h","h",1,2575,2,"B5","Label","A_Saldie",20,"F",6,1.79175946922805,7.85360481309784
"384",4,24,"h","h",1,1675,2,"B4","Label","A_Saldie",20,"F",6,1.79175946922805,7.42356844425917
"385",4,25,"h","h",1,809,3,"B4","Label","A_Saldie",20,"F",6,1.79175946922805,6.69579891705849
"386",4,26,"f","f",1,1576,3,"A2","Label","A_Saldie",20,"F",6,1.79175946922805,7.36264527041782
"387",4,27,"h","h",1,3902,3,"B5","Label","A_Saldie",20,"F",6,1.79175946922805,8.26924452118306
"388",4,28,"f","f",1,2099,3,"A6","Label","A_Saldie",20,"F",6,1.79175946922805,7.64921631982063
"389",4,29,"h","f",0,4670,3,"B2","Label","A_Saldie",20,"F",6,1.79175946922805,8.44891435066294
"390",4,30,"f","f",1,3840,3,"A1","Label","A_Saldie",20,"F",6,1.79175946922805,8.25322764558177
"391",4,31,"h","h",1,2439,3,"B3","Label","A_Saldie",20,"F",6,1.79175946922805,7.79934339821592
"392",4,32,"h","f",0,1546,3,"B6","Label","A_Saldie",20,"F",6,1.79175946922805,7.34342622914737
"393",4,33,"h","f",0,3674,3,"B1","Label","A_Saldie",20,"F",6,1.79175946922805,8.20903626577507
"394",4,34,"f","f",1,5201,3,"A3","Label","A_Saldie",20,"F",6,1.79175946922805,8.55660619377307
"395",4,35,"f","h",0,2274,3,"A4","Label","A_Saldie",20,"F",6,1.79175946922805,7.72929567431048
"396",4,36,"f","f",1,2537,3,"A5","Label","A_Saldie",20,"F",6,1.79175946922805,7.83873755959928
"397",4,37,"h","f",0,3361,4,"B1","Label","A_Saldie",20,"F",6,1.79175946922805,8.11999382772511
"398",4,38,"f","f",1,2529,4,"A3","Label","A_Saldie",20,"F",6,1.79175946922805,7.83557924666997
"399",4,39,"f","f",1,2817,4,"A5","Label","A_Saldie",20,"F",6,1.79175946922805,7.94342776787637
"400",4,40,"h","h",1,3050,4,"B4","Label","A_Saldie",20,"F",6,1.79175946922805,8.02289686960146
"401",4,41,"f","h",0,2836,4,"A6","Label","A_Saldie",20,"F",6,1.79175946922805,7.95014988765202
"402",4,42,"f","h",0,4947,4,"A4","Label","A_Saldie",20,"F",6,1.79175946922805,8.50653661122771
"403",4,43,"f","h",0,1650,4,"A2","Label","A_Saldie",20,"F",6,1.79175946922805,7.40853056689463
"404",4,44,"f","h",0,1532,4,"A1","Label","A_Saldie",20,"F",6,1.79175946922805,7.33432935030054
"405",4,45,"h","h",1,1143,4,"B2","Label","A_Saldie",20,"F",6,1.79175946922805,7.04141166379481
"406",4,46,"h","h",1,3723,4,"B6","Label","A_Saldie",20,"F",6,1.79175946922805,8.22228507387272
"407",4,47,"h","h",1,4489,4,"B5","Label","A_Saldie",20,"F",6,1.79175946922805,8.40938523878193
"408",4,48,"h","h",1,5891,4,"B3","Label","A_Saldie",20,"F",6,1.79175946922805,8.68118104152169
"409",4,49,"h","h",1,4157,5,"B1","Label","A_Saldie",20,"F",6,1.79175946922805,8.33254893925264
"410",4,50,"f","h",0,7343,5,"A2","Label","A_Saldie",20,"F",6,1.79175946922805,8.90150275745161
"411",4,51,"h","h",1,5490,5,"B5","Label","A_Saldie",20,"F",6,1.79175946922805,8.61068353450358
"412",4,52,"h","h",1,4189,5,"B3","Label","A_Saldie",20,"F",6,1.79175946922805,8.34021732094704
"413",4,53,"h","f",0,6635,5,"B4","Label","A_Saldie",20,"F",6,1.79175946922805,8.80011394676631
"414",4,54,"f","h",0,6862,5,"A1","Label","A_Saldie",20,"F",6,1.79175946922805,8.8337542234184
"415",4,55,"h","h",1,4132,5,"B6","Label","A_Saldie",20,"F",6,1.79175946922805,8.32651683023953
"416",4,56,"f","f",1,4722,5,"A3","Label","A_Saldie",20,"F",6,1.79175946922805,8.45998771764546
"417",4,57,"f","f",1,3785,5,"A6","Label","A_Saldie",20,"F",6,1.79175946922805,8.23880116587155
"418",4,58,"f","f",1,3025,5,"A4","Label","A_Saldie",20,"F",6,1.79175946922805,8.01466637046494
"419",4,59,"f","f",1,2862,5,"A5","Label","A_Saldie",20,"F",6,1.79175946922805,7.9592759601164
"420",4,60,"h","h",1,1307,5,"B2","Label","A_Saldie",20,"F",6,1.79175946922805,7.17548971362422
"421",4,61,"h","h",1,4759,6,"B1","Label","A_Saldie",20,"F",6,1.79175946922805,8.46779284112111
"422",4,62,"f","f",1,1004,6,"A1","Label","A_Saldie",20,"F",6,1.79175946922805,6.91174730025167
"423",4,63,"f","f",1,1087,6,"A2","Label","A_Saldie",20,"F",6,1.79175946922805,6.99117688712121
"424",4,64,"h","h",1,2186,6,"B6","Label","A_Saldie",20,"F",6,1.79175946922805,7.68982866873648
"425",4,65,"f","f",1,980,6,"A3","Label","A_Saldie",20,"F",6,1.79175946922805,6.88755257166462
"426",4,66,"h","h",1,1071,6,"B2","Label","A_Saldie",20,"F",6,1.79175946922805,6.97634807044775
"427",4,67,"h","h",1,1079,6,"B4","Label","A_Saldie",20,"F",6,1.79175946922805,6.98378996525813
"428",4,68,"f","f",1,1184,6,"A6","Label","A_Saldie",20,"F",6,1.79175946922805,7.07665381544395
"429",4,69,"h","h",1,1366,6,"B5","Label","A_Saldie",20,"F",6,1.79175946922805,7.21964204013074
"430",4,70,"h","h",1,601,6,"B3","Label","A_Saldie",20,"F",6,1.79175946922805,6.39859493453521
"431",4,71,"f","f",1,1104,6,"A5","Label","A_Saldie",20,"F",6,1.79175946922805,7.00669522683704
"432",4,72,"f","f",1,600,6,"A4","Label","A_Saldie",20,"F",6,1.79175946922805,6.39692965521615
"433",4,253,"h","h",1,644,0,"B5","Label","A_Saldie",20,"F",6,1.79175946922805,6.46769872610435
"434",4,254,"f","f",1,846,0,"A5","Label","A_Saldie",20,"F",6,1.79175946922805,6.74051935960622
"435",4,255,"f","f",1,645,0,"A3","Label","A_Saldie",20,"F",6,1.79175946922805,6.46925031679577
"436",4,256,"h","h",1,741,0,"TestB2","Label","A_Saldie",20,"F",6,1.79175946922805,6.60800062529609
"437",4,257,"f","f",1,525,0,"TestA2","Label","A_Saldie",20,"F",6,1.79175946922805,6.26339826259162
"438",4,258,"f","f",1,707,0,"A6","Label","A_Saldie",20,"F",6,1.79175946922805,6.56103066589657
"439",4,259,"h","h",1,519,0,"B4","Label","A_Saldie",20,"F",6,1.79175946922805,6.25190388316589
"440",4,260,"f","f",1,586,0,"A4","Label","A_Saldie",20,"F",6,1.79175946922805,6.37331978957701
"441",4,261,"h","h",1,779,0,"B3","Label","A_Saldie",20,"F",6,1.79175946922805,6.65801104587075
"442",4,262,"h","h",1,968,0,"TestB1","Label","A_Saldie",20,"F",6,1.79175946922805,6.87523208727658
"443",4,263,"h","h",1,557,0,"B6","Label","A_Saldie",20,"F",6,1.79175946922805,6.32256523992728
"444",4,264,"f","f",1,650,0,"TestA1","Label","A_Saldie",20,"F",6,1.79175946922805,6.47697236288968
"445",5,1,"f","f",1,1347,1,"A2","Label","A_Gatoo",20,"M",2,0.693147180559945,7.20563517641036
"446",5,2,"f","f",1,2371,1,"A4","Label","A_Gatoo",20,"M",2,0.693147180559945,7.77106708606541
"447",5,3,"h","f",0,1149,1,"B4","Label","A_Gatoo",20,"M",2,0.693147180559945,7.04664727784876
"448",5,4,"f","f",1,1588,1,"A6","Label","A_Gatoo",20,"M",2,0.693147180559945,7.37023064180708
"449",5,5,"h","h",1,872,1,"B3","Label","A_Gatoo",20,"M",2,0.693147180559945,6.77078942390898
"450",5,6,"h","h",1,720,1,"B5","Label","A_Gatoo",20,"M",2,0.693147180559945,6.5792512120101
"451",5,7,"h","h",1,696,1,"B2","Label","A_Gatoo",20,"M",2,0.693147180559945,6.54534966033442
"452",5,8,"h","f",0,1331,1,"B6","Label","A_Gatoo",20,"M",2,0.693147180559945,7.19368581839511
"453",5,9,"f","f",1,2085,1,"A5","Label","A_Gatoo",20,"M",2,0.693147180559945,7.6425241342329
"454",5,10,"f","h",0,1712,1,"A3","Label","A_Gatoo",20,"M",2,0.693147180559945,7.44541755670169
"455",5,11,"h","h",1,1456,1,"B1","Label","A_Gatoo",20,"M",2,0.693147180559945,7.28344822875663
"456",5,12,"f","f",1,732,1,"A1","Label","A_Gatoo",20,"M",2,0.693147180559945,6.59578051396131
"457",5,13,"h","h",1,994,2,"B1","Label","A_Gatoo",20,"M",2,0.693147180559945,6.90173720665657
"458",5,14,"h","h",1,726,2,"B4","Label","A_Gatoo",20,"M",2,0.693147180559945,6.5875500148248
"459",5,15,"f","f",1,1035,2,"A5","Label","A_Gatoo",20,"M",2,0.693147180559945,6.94215670569947
"460",5,16,"f","f",1,1755,2,"A6","Label","A_Gatoo",20,"M",2,0.693147180559945,7.47022413589997
"461",5,17,"h","h",1,719,2,"B5","Label","A_Gatoo",20,"M",2,0.693147180559945,6.57786135772105
"462",5,18,"h","h",1,690,2,"B3","Label","A_Gatoo",20,"M",2,0.693147180559945,6.5366915975913
"463",5,19,"f","f",1,904,2,"A4","Label","A_Gatoo",20,"M",2,0.693147180559945,6.80682936039218
"464",5,20,"f","f",1,752,2,"A2","Label","A_Gatoo",20,"M",2,0.693147180559945,6.62273632394984
"465",5,21,"f","f",1,695,2,"A1","Label","A_Gatoo",20,"M",2,0.693147180559945,6.54391184556479
"466",5,22,"h","h",1,651,2,"B6","Label","A_Gatoo",20,"M",2,0.693147180559945,6.47850964220857
"467",5,23,"h","h",1,711,2,"B2","Label","A_Gatoo",20,"M",2,0.693147180559945,6.56667242980324
"468",5,24,"f","f",1,588,2,"A3","Label","A_Gatoo",20,"M",2,0.693147180559945,6.37672694789863
"469",5,253,"f","f",1,534,0,"A4","Label","A_Gatoo",20,"M",2,0.693147180559945,6.2803958389602
"470",5,254,"f","f",1,607,0,"TestA1","Label","A_Gatoo",20,"M",2,0.693147180559945,6.4085287910595
"471",5,255,"h","h",1,634,0,"TestB2","Label","A_Gatoo",20,"M",2,0.693147180559945,6.45204895443723
"472",5,256,"f","f",1,677,0,"TestA2","Label","A_Gatoo",20,"M",2,0.693147180559945,6.51767127291227
"473",5,257,"f","f",1,630,0,"A5","Label","A_Gatoo",20,"M",2,0.693147180559945,6.44571981938558
"474",5,258,"h","h",1,625,0,"B4","Label","A_Gatoo",20,"M",2,0.693147180559945,6.4377516497364
"475",5,259,"h","h",1,599,0,"B6","Label","A_Gatoo",20,"M",2,0.693147180559945,6.39526159811545
"476",5,260,"h","h",1,538,0,"B5","Label","A_Gatoo",20,"M",2,0.693147180559945,6.28785856016178
"477",5,261,"h","h",1,688,0,"TestB1","Label","A_Gatoo",20,"M",2,0.693147180559945,6.53378883793334
"478",5,262,"f","f",1,634,0,"A6","Label","A_Gatoo",20,"M",2,0.693147180559945,6.45204895443723
"479",5,263,"h","h",1,551,0,"B3","Label","A_Gatoo",20,"M",2,0.693147180559945,6.31173480915291
"480",5,264,"f","f",1,541,0,"A3","Label","A_Gatoo",20,"M",2,0.693147180559945,6.29341927884648
"481",6,1,"","",0,NA,1,"B1","NoLabel","NoName",21,"F",2,0.693147180559945,NA
"482",6,2,"h","h",1,4198,1,"B4","NoLabel","NoName",21,"F",2,0.693147180559945,8.34236350038058
"483",6,3,"f","h",0,2404,1,"A2","NoLabel","NoName",21,"F",2,0.693147180559945,7.7848892956551
"484",6,4,"f","f",1,1583,1,"A5","NoLabel","NoName",21,"F",2,0.693147180559945,7.36707705988101
"485",6,5,"h","f",0,1411,1,"B5","NoLabel","NoName",21,"F",2,0.693147180559945,7.25205395185281
"486",6,6,"h","h",1,2500,1,"B6","NoLabel","NoName",21,"F",2,0.693147180559945,7.82404601085629
"487",6,7,"f","f",1,1629,1,"A1","NoLabel","NoName",21,"F",2,0.693147180559945,7.39572160860205
"488",6,8,"f","f",1,2429,1,"A3","NoLabel","NoName",21,"F",2,0.693147180559945,7.79523492900217
"489",6,9,"f","h",0,2065,1,"A6","NoLabel","NoName",21,"F",2,0.693147180559945,7.63288550539513
"490",6,10,"f","f",1,2174,1,"A4","NoLabel","NoName",21,"F",2,0.693147180559945,7.68432406768116
"491",6,11,"h","h",1,3857,1,"B3","NoLabel","NoName",21,"F",2,0.693147180559945,8.25764495820823
"492",6,12,"h","h",1,1749,1,"B2","NoLabel","NoName",21,"F",2,0.693147180559945,7.4667994750186
"493",6,13,"f","f",1,1916,2,"A5","NoLabel","NoName",21,"F",2,0.693147180559945,7.55799495853081
"494",6,14,"f","f",1,1230,2,"A6","NoLabel","NoName",21,"F",2,0.693147180559945,7.11476944836646
"495",6,15,"h","h",1,1343,2,"B2","NoLabel","NoName",21,"F",2,0.693147180559945,7.20266119652324
"496",6,16,"h","h",1,1091,2,"B3","NoLabel","NoName",21,"F",2,0.693147180559945,6.99484998583307
"497",6,17,"f","f",1,1888,2,"A2","NoLabel","NoName",21,"F",2,0.693147180559945,7.54327334670545
"498",6,18,"h","h",1,2581,2,"B6","NoLabel","NoName",21,"F",2,0.693147180559945,7.85593219971861
"499",6,19,"f","f",1,1725,2,"A1","NoLabel","NoName",21,"F",2,0.693147180559945,7.45298232946546
"500",6,20,"h","h",1,1760,2,"B5","NoLabel","NoName",21,"F",2,0.693147180559945,7.4730690880322
"501",6,21,"h","h",1,1279,2,"B4","NoLabel","NoName",21,"F",2,0.693147180559945,7.15383380157884
"502",6,22,"f","f",1,1688,2,"A3","NoLabel","NoName",21,"F",2,0.693147180559945,7.4312996751559
"503",6,23,"f","f",1,998,2,"A4","NoLabel","NoName",21,"F",2,0.693147180559945,6.90575327631146
"504",6,24,"h","h",1,857,2,"B1","NoLabel","NoName",21,"F",2,0.693147180559945,6.75343791859778
"505",6,253,"f","f",1,1762,0,"A3","NoLabel","NoName",21,"F",2,0.693147180559945,7.47420480649612
"506",6,254,"h","h",1,924,0,"B3","NoLabel","NoName",21,"F",2,0.693147180559945,6.82871207164168
"507",6,255,"h","h",1,1646,0,"B4","NoLabel","NoName",21,"F",2,0.693147180559945,7.40610338123702
"508",6,256,"f","f",1,1304,0,"TestA2","NoLabel","NoName",21,"F",2,0.693147180559945,7.1731917424866
"509",6,257,"h","h",1,1576,0,"B6","NoLabel","NoName",21,"F",2,0.693147180559945,7.36264527041782
"510",6,258,"f","f",1,1655,0,"A6","NoLabel","NoName",21,"F",2,0.693147180559945,7.41155628781116
"511",6,259,"f","f",1,1682,0,"A4","NoLabel","NoName",21,"F",2,0.693147180559945,7.42773884053289
"512",6,260,"h","h",1,1529,0,"B5","NoLabel","NoName",21,"F",2,0.693147180559945,7.33236920592906
"513",6,261,"h","h",1,1253,0,"TestB2","NoLabel","NoName",21,"F",2,0.693147180559945,7.13329595489607
"514",6,262,"f","f",1,1092,0,"A5","NoLabel","NoName",21,"F",2,0.693147180559945,6.99576615630485
"515",6,263,"f","f",1,1516,0,"TestA1","NoLabel","NoName",21,"F",2,0.693147180559945,7.32383056620232
"516",6,264,"h","h",1,1670,0,"TestB1","NoLabel","NoName",21,"F",2,0.693147180559945,7.4205789054108
"517",7,1,"h","h",1,1935,1,"B5","NoLabel","NoName",18,"F",4,1.38629436111989,7.56786260546388
"518",7,2,"h","h",1,1657,1,"B2","NoLabel","NoName",18,"F",4,1.38629436111989,7.41276401742656
"519",7,3,"h","h",1,992,1,"B3","NoLabel","NoName",18,"F",4,1.38629436111989,6.89972310728487
"520",7,4,"f","h",0,1210,1,"A3","NoLabel","NoName",18,"F",4,1.38629436111989,7.09837563859079
"521",7,5,"f","h",0,891,1,"A6","NoLabel","NoName",18,"F",4,1.38629436111989,6.79234442747081
"522",7,6,"f","h",0,1632,1,"A2","NoLabel","NoName",18,"F",4,1.38629436111989,7.39756153552405
"523",7,7,"f","f",1,908,1,"A1","NoLabel","NoName",18,"F",4,1.38629436111989,6.81124437860129
"524",7,8,"h","h",1,1533,1,"B6","NoLabel","NoName",18,"F",4,1.38629436111989,7.33498187887181
"525",7,9,"f","h",0,1002,1,"A5","NoLabel","NoName",18,"F",4,1.38629436111989,6.90975328164481
"526",7,10,"f","h",0,3357,1,"A4","NoLabel","NoName",18,"F",4,1.38629436111989,8.11880299698004
"527",7,11,"h","f",0,3309,1,"B1","NoLabel","NoName",18,"F",4,1.38629436111989,8.10440130792161
"528",7,12,"h","f",0,2096,1,"B4","NoLabel","NoName",18,"F",4,1.38629436111989,7.64778604544093
"529",7,13,"h","h",1,2553,2,"B3","NoLabel","NoName",18,"F",4,1.38629436111989,7.84502441724148
"530",7,14,"h","f",0,1553,2,"B4","NoLabel","NoName",18,"F",4,1.38629436111989,7.34794382314869
"531",7,15,"f","f",1,1757,2,"A4","NoLabel","NoName",18,"F",4,1.38629436111989,7.4713630881871
"532",7,16,"h","h",1,2059,2,"B2","NoLabel","NoName",18,"F",4,1.38629436111989,7.62997570702779
"533",7,17,"f","h",0,1549,2,"A1","NoLabel","NoName",18,"F",4,1.38629436111989,7.34536484041687
"534",7,18,"h","f",0,2626,2,"B5","NoLabel","NoName",18,"F",4,1.38629436111989,7.87321705486274
"535",7,19,"f","h",0,1619,2,"A5","NoLabel","NoName",18,"F",4,1.38629436111989,7.38956395367764
"536",7,20,"h","f",0,2219,2,"B6","NoLabel","NoName",18,"F",4,1.38629436111989,7.70481192293259
"537",7,21,"h","f",0,8759,2,"B1","NoLabel","NoName",18,"F",4,1.38629436111989,9.07783702216309
"538",7,22,"f","h",0,3746,2,"A2","NoLabel","NoName",18,"F",4,1.38629436111989,8.22844388300403
"539",7,23,"f","h",0,3732,2,"A6","NoLabel","NoName",18,"F",4,1.38629436111989,8.22469956196723
"540",7,24,"f","f",1,1580,2,"A3","NoLabel","NoName",18,"F",4,1.38629436111989,7.36518012602101
"541",7,25,"h","f",0,1097,3,"B1","NoLabel","NoName",18,"F",4,1.38629436111989,7.00033446027523
"542",7,26,"f","f",1,1221,3,"A5","NoLabel","NoName",18,"F",4,1.38629436111989,7.1074254741107
"543",7,27,"f","f",1,2210,3,"A1","NoLabel","NoName",18,"F",4,1.38629436111989,7.7007477945118
"544",7,28,"h","h",1,725,3,"B5","NoLabel","NoName",18,"F",4,1.38629436111989,6.58617165485467
"545",7,29,"f","f",1,1435,3,"A6","NoLabel","NoName",18,"F",4,1.38629436111989,7.26892012819372
"546",7,30,"f","f",1,714,3,"A4","NoLabel","NoName",18,"F",4,1.38629436111989,6.57088296233958
"547",7,31,"h","h",1,787,3,"B3","NoLabel","NoName",18,"F",4,1.38629436111989,6.6682282484174
"548",7,32,"h","h",1,793,3,"B6","NoLabel","NoName",18,"F",4,1.38629436111989,6.67582322163485
"549",7,33,"h","h",1,936,3,"B2","NoLabel","NoName",18,"F",4,1.38629436111989,6.84161547647759
"550",7,34,"h","h",1,511,3,"B4","NoLabel","NoName",18,"F",4,1.38629436111989,6.2363695902037
"551",7,35,"f","f",1,894,3,"A3","NoLabel","NoName",18,"F",4,1.38629436111989,6.79570577517351
"552",7,36,"f","f",1,1059,3,"A2","NoLabel","NoName",18,"F",4,1.38629436111989,6.96508034560141
"553",7,37,"f","f",1,715,4,"A6","NoLabel","NoName",18,"F",4,1.38629436111989,6.57228254269401
"554",7,38,"h","h",1,1183,4,"B4","NoLabel","NoName",18,"F",4,1.38629436111989,7.07580886397839
"555",7,39,"h","h",1,629,4,"B1","NoLabel","NoName",18,"F",4,1.38629436111989,6.44413125670044
"556",7,40,"f","f",1,1456,4,"A5","NoLabel","NoName",18,"F",4,1.38629436111989,7.28344822875663
"557",7,41,"f","f",1,871,4,"A1","NoLabel","NoName",18,"F",4,1.38629436111989,6.7696419768525
"558",7,42,"f","f",1,546,4,"A2","NoLabel","NoName",18,"F",4,1.38629436111989,6.30261897574491
"559",7,43,"h","h",1,781,4,"B3","NoLabel","NoName",18,"F",4,1.38629436111989,6.66057514983969
"560",7,44,"h","h",1,579,4,"B6","NoLabel","NoName",18,"F",4,1.38629436111989,6.361302477573
"561",7,45,"h","h",1,917,4,"B2","NoLabel","NoName",18,"F",4,1.38629436111989,6.82110747225646
"562",7,46,"f","f",1,757,4,"A4","NoLabel","NoName",18,"F",4,1.38629436111989,6.62936325343745
"563",7,47,"f","f",1,1318,4,"A3","NoLabel","NoName",18,"F",4,1.38629436111989,7.18387071506245
"564",7,48,"h","h",1,692,4,"B5","NoLabel","NoName",18,"F",4,1.38629436111989,6.53958595561767
"565",7,253,"h","h",1,835,0,"B6","NoLabel","NoName",18,"F",4,1.38629436111989,6.72743172485086
"566",7,254,"f","f",1,741,0,"TestA1","NoLabel","NoName",18,"F",4,1.38629436111989,6.60800062529609
"567",7,255,"f","f",1,1098,0,"A3","NoLabel","NoName",18,"F",4,1.38629436111989,7.00124562206948
"568",7,256,"h","h",1,962,0,"TestB2","NoLabel","NoName",18,"F",4,1.38629436111989,6.86901445066571
"569",7,257,"f","f",1,947,0,"A5","NoLabel","NoName",18,"F",4,1.38629436111989,6.85329909318608
"570",7,258,"f","f",1,669,0,"A6","NoLabel","NoName",18,"F",4,1.38629436111989,6.50578406012823
"571",7,259,"f","f",1,939,0,"TestA2","NoLabel","NoName",18,"F",4,1.38629436111989,6.84481547920826
"572",7,260,"h","h",1,563,0,"B3","NoLabel","NoName",18,"F",4,1.38629436111989,6.33327962813969
"573",7,261,"h","h",1,813,0,"B5","NoLabel","NoName",18,"F",4,1.38629436111989,6.70073110954781
"574",7,262,"h","h",1,626,0,"TestB1","NoLabel","NoName",18,"F",4,1.38629436111989,6.4393503711001
"575",7,263,"h","h",1,655,0,"B4","NoLabel","NoName",18,"F",4,1.38629436111989,6.48463523563525
"576",7,264,"f","f",1,596,0,"A4","NoLabel","NoName",18,"F",4,1.38629436111989,6.39024066706535
"577",8,1,"f","f",1,2433,1,"A5","Label","A_Saldie",18,"M",4,1.38629436111989,7.79688034278352
"578",8,2,"h","h",1,2071,1,"B6","Label","A_Saldie",18,"M",4,1.38629436111989,7.63578686139558
"579",8,3,"h","h",1,2388,1,"B5","Label","A_Saldie",18,"M",4,1.38629436111989,7.77821147451249
"580",8,4,"f","f",1,1978,1,"A3","Label","A_Saldie",18,"M",4,1.38629436111989,7.58984151218266
"581",8,5,"f","f",1,1363,1,"A1","Label","A_Saldie",18,"M",4,1.38629436111989,7.21744343169653
"582",8,6,"f","f",1,1754,1,"A6","Label","A_Saldie",18,"M",4,1.38629436111989,7.46965417293213
"583",8,7,"h","h",1,740,1,"B1","Label","A_Saldie",18,"M",4,1.38629436111989,6.60665018619822
"584",8,8,"h","h",1,1576,1,"B4","Label","A_Saldie",18,"M",4,1.38629436111989,7.36264527041782
"585",8,9,"f","f",1,1462,1,"A2","Label","A_Saldie",18,"M",4,1.38629436111989,7.28756064030972
"586",8,10,"h","f",0,934,1,"B2","Label","A_Saldie",18,"M",4,1.38629436111989,6.83947643822884
"587",8,11,"h","h",1,1920,1,"B3","Label","A_Saldie",18,"M",4,1.38629436111989,7.56008046502183
"588",8,12,"f","h",0,1431,1,"A4","Label","A_Saldie",18,"M",4,1.38629436111989,7.26612877955645
"589",8,13,"h","f",0,1162,2,"B2","Label","A_Saldie",18,"M",4,1.38629436111989,7.05789793741186
"590",8,14,"h","h",1,1057,2,"B3","Label","A_Saldie",18,"M",4,1.38629436111989,6.96318998587024
"591",8,15,"h","h",1,1629,2,"B6","Label","A_Saldie",18,"M",4,1.38629436111989,7.39572160860205
"592",8,16,"h","h",1,860,2,"B4","Label","A_Saldie",18,"M",4,1.38629436111989,6.75693238924755
"593",8,17,"f","h",0,1203,2,"A1","Label","A_Saldie",18,"M",4,1.38629436111989,7.09257371597468
"594",8,18,"f","f",1,1396,2,"A6","Label","A_Saldie",18,"M",4,1.38629436111989,7.24136628332232
"595",8,19,"f","h",0,1281,2,"A5","Label","A_Saldie",18,"M",4,1.38629436111989,7.15539630189673
"596",8,20,"h","h",1,1010,2,"B5","Label","A_Saldie",18,"M",4,1.38629436111989,6.9177056098353
"597",8,21,"f","h",0,1131,2,"A2","Label","A_Saldie",18,"M",4,1.38629436111989,7.03085747611612
"598",8,22,"h","h",1,951,2,"B1","Label","A_Saldie",18,"M",4,1.38629436111989,6.85751406254539
"599",8,23,"f","f",1,910,2,"A3","Label","A_Saldie",18,"M",4,1.38629436111989,6.8134445995109
"600",8,24,"f","h",0,750,2,"A4","Label","A_Saldie",18,"M",4,1.38629436111989,6.62007320653036
"601",8,25,"f","h",0,1199,3,"A2","Label","A_Saldie",18,"M",4,1.38629436111989,7.08924315502751
"602",8,26,"h","h",1,854,3,"B6","Label","A_Saldie",18,"M",4,1.38629436111989,6.74993119378857
"603",8,27,"h","h",1,1689,3,"B2","Label","A_Saldie",18,"M",4,1.38629436111989,7.4318919168078
"604",8,28,"h","h",1,1197,3,"B1","Label","A_Saldie",18,"M",4,1.38629436111989,7.08757370555797
"605",8,29,"f","f",1,775,3,"A1","Label","A_Saldie",18,"M",4,1.38629436111989,6.65286302935335
"606",8,30,"f","f",1,892,3,"A6","Label","A_Saldie",18,"M",4,1.38629436111989,6.79346613258001
"607",8,31,"h","h",1,590,3,"B5","Label","A_Saldie",18,"M",4,1.38629436111989,6.38012253689976
"608",8,32,"f","f",1,694,3,"A4","Label","A_Saldie",18,"M",4,1.38629436111989,6.5424719605068
"609",8,33,"h","h",1,627,3,"B4","Label","A_Saldie",18,"M",4,1.38629436111989,6.44094654063292
"610",8,34,"h","h",1,604,3,"B3","Label","A_Saldie",18,"M",4,1.38629436111989,6.40357419793482
"611",8,35,"f","f",1,807,3,"A3","Label","A_Saldie",18,"M",4,1.38629436111989,6.69332366826995
"612",8,36,"f","f",1,611,3,"A5","Label","A_Saldie",18,"M",4,1.38629436111989,6.4150969591716
"613",8,37,"f","f",1,1026,4,"A2","Label","A_Saldie",18,"M",4,1.38629436111989,6.93342302573071
"614",8,38,"f","f",1,711,4,"A4","Label","A_Saldie",18,"M",4,1.38629436111989,6.56667242980324
"615",8,39,"f","f",1,742,4,"A5","Label","A_Saldie",18,"M",4,1.38629436111989,6.60934924316738
"616",8,40,"h","h",1,690,4,"B3","Label","A_Saldie",18,"M",4,1.38629436111989,6.5366915975913
"617",8,41,"h","h",1,755,4,"B1","Label","A_Saldie",18,"M",4,1.38629436111989,6.62671774924902
"618",8,42,"f","f",1,828,4,"A6","Label","A_Saldie",18,"M",4,1.38629436111989,6.71901315438526
"619",8,43,"h","h",1,658,4,"B5","Label","A_Saldie",18,"M",4,1.38629436111989,6.48920493132532
"620",8,44,"h","h",1,603,4,"B4","Label","A_Saldie",18,"M",4,1.38629436111989,6.40191719672719
"621",8,45,"h","h",1,587,4,"B6","Label","A_Saldie",18,"M",4,1.38629436111989,6.3750248198281
"622",8,46,"f","f",1,586,4,"A3","Label","A_Saldie",18,"M",4,1.38629436111989,6.37331978957701
"623",8,47,"h","h",1,768,4,"B2","Label","A_Saldie",18,"M",4,1.38629436111989,6.64378973314767
"624",8,48,"f","f",1,923,4,"A1","Label","A_Saldie",18,"M",4,1.38629436111989,6.82762923450285
"625",8,253,"h","h",1,754,0,"TestB1","Label","A_Saldie",18,"M",4,1.38629436111989,6.62539236800796
"626",8,254,"f","f",1,593,0,"A5","Label","A_Saldie",18,"M",4,1.38629436111989,6.38519439899773
"627",8,255,"h","h",1,528,0,"B3","Label","A_Saldie",18,"M",4,1.38629436111989,6.26909628370626
"628",8,256,"f","f",1,624,0,"A4","Label","A_Saldie",18,"M",4,1.38629436111989,6.43615036836943
"629",8,257,"h","h",1,525,0,"B5","Label","A_Saldie",18,"M",4,1.38629436111989,6.26339826259162
"630",8,258,"h","h",1,604,0,"B6","Label","A_Saldie",18,"M",4,1.38629436111989,6.40357419793482
"631",8,259,"f","f",1,615,0,"A6","Label","A_Saldie",18,"M",4,1.38629436111989,6.42162226780652
"632",8,260,"f","f",1,534,0,"A3","Label","A_Saldie",18,"M",4,1.38629436111989,6.2803958389602
"633",8,261,"h","h",1,536,0,"B4","Label","A_Saldie",18,"M",4,1.38629436111989,6.2841341610708
"634",8,262,"h","h",1,920,0,"TestB2","Label","A_Saldie",18,"M",4,1.38629436111989,6.82437367004309
"635",8,263,"f","f",1,634,0,"TestA1","Label","A_Saldie",18,"M",4,1.38629436111989,6.45204895443723
"636",8,264,"f","f",1,634,0,"TestA2","Label","A_Saldie",18,"M",4,1.38629436111989,6.45204895443723
"637",9,1,"f","f",1,1357,1,"A2","Label","A_Gatoo",21,"M",6,1.79175946922805,7.21303165983487
"638",9,2,"h","f",0,1631,1,"B1","Label","A_Gatoo",21,"M",6,1.79175946922805,7.39694860262101
"639",9,3,"f","f",1,2020,1,"A4","Label","A_Gatoo",21,"M",6,1.79175946922805,7.61085279039525
"640",9,4,"h","h",1,1386,1,"B2","Label","A_Gatoo",21,"M",6,1.79175946922805,7.23417717974985
"641",9,5,"f","h",0,1385,1,"A1","Label","A_Gatoo",21,"M",6,1.79175946922805,7.23345541862144
"642",9,6,"h","f",0,2267,1,"B4","Label","A_Gatoo",21,"M",6,1.79175946922805,7.72621265050753
"643",9,7,"f","f",1,2001,1,"A6","Label","A_Gatoo",21,"M",6,1.79175946922805,7.60140233458373
"644",9,8,"f","h",0,824,1,"A3","Label","A_Gatoo",21,"M",6,1.79175946922805,6.71417052990947
"645",9,9,"h","f",0,1331,1,"B3","Label","A_Gatoo",21,"M",6,1.79175946922805,7.19368581839511
"646",9,10,"h","f",0,768,1,"B5","Label","A_Gatoo",21,"M",6,1.79175946922805,6.64378973314767
"647",9,11,"h","f",0,1254,1,"B6","Label","A_Gatoo",21,"M",6,1.79175946922805,7.13409372119287
"648",9,12,"f","h",0,713,1,"A5","Label","A_Gatoo",21,"M",6,1.79175946922805,6.5694814204143
"649",9,13,"f","f",1,1173,2,"A2","Label","A_Gatoo",21,"M",6,1.79175946922805,7.06731984865348
"650",9,14,"f","f",1,1658,2,"A1","Label","A_Gatoo",21,"M",6,1.79175946922805,7.41336733569524
"651",9,15,"f","h",0,1057,2,"A5","Label","A_Gatoo",21,"M",6,1.79175946922805,6.96318998587024
"652",9,16,"h","h",1,1287,2,"B4","Label","A_Gatoo",21,"M",6,1.79175946922805,7.16006920759613
"653",9,17,"h","f",0,1174,2,"B2","Label","A_Gatoo",21,"M",6,1.79175946922805,7.06817200038804
"654",9,18,"h","f",0,1139,2,"B1","Label","A_Gatoo",21,"M",6,1.79175946922805,7.03790596344718
"655",9,19,"f","f",1,971,2,"A3","Label","A_Gatoo",21,"M",6,1.79175946922805,6.87832646829133
"656",9,20,"h","f",0,3526,2,"B5","Label","A_Gatoo",21,"M",6,1.79175946922805,8.16791936295782
"657",9,21,"h","h",1,1777,2,"B6","Label","A_Gatoo",21,"M",6,1.79175946922805,7.48268182815465
"658",9,22,"h","f",0,949,2,"B3","Label","A_Gatoo",21,"M",6,1.79175946922805,6.85540879860993
"659",9,23,"f","f",1,1909,2,"A4","Label","A_Gatoo",21,"M",6,1.79175946922805,7.55433482372575
"660",9,24,"f","h",0,2307,2,"A6","Label","A_Gatoo",21,"M",6,1.79175946922805,7.74370325817375
"661",9,25,"h","h",1,3679,3,"B5","Label","A_Gatoo",21,"M",6,1.79175946922805,8.21039625510477
"662",9,26,"h","f",0,3128,3,"B2","Label","A_Gatoo",21,"M",6,1.79175946922805,8.0481491016652
"663",9,27,"f","h",0,3265,3,"A5","Label","A_Gatoo",21,"M",6,1.79175946922805,8.09101504171053
"664",9,28,"f","h",0,1258,3,"A6","Label","A_Gatoo",21,"M",6,1.79175946922805,7.13727843726039
"665",9,29,"h","f",0,1025,3,"B1","Label","A_Gatoo",21,"M",6,1.79175946922805,6.93244789157251
"666",9,30,"h","h",1,1166,3,"B6","Label","A_Gatoo",21,"M",6,1.79175946922805,7.06133436691044
"667",9,31,"h","h",1,2874,3,"B4","Label","A_Gatoo",21,"M",6,1.79175946922805,7.96346006663897
"668",9,32,"f","f",1,912,3,"A2","Label","A_Gatoo",21,"M",6,1.79175946922805,6.81563999007433
"669",9,33,"f","f",1,1501,3,"A4","Label","A_Gatoo",21,"M",6,1.79175946922805,7.31388683163346
"670",9,34,"f","h",0,1216,3,"A3","Label","A_Gatoo",21,"M",6,1.79175946922805,7.10332206252611
"671",9,35,"f","f",1,2321,3,"A1","Label","A_Gatoo",21,"M",6,1.79175946922805,7.74975340627444
"672",9,36,"h","h",1,1222,3,"B3","Label","A_Gatoo",21,"M",6,1.79175946922805,7.10824413973154
"673",9,37,"f","f",1,4032,4,"A1","Label","A_Gatoo",21,"M",6,1.79175946922805,8.3020178097512
"674",9,38,"h","h",1,1393,4,"B2","Label","A_Gatoo",21,"M",6,1.79175946922805,7.23921497377981
"675",9,39,"h","h",1,1991,4,"B4","Label","A_Gatoo",21,"M",6,1.79175946922805,7.5963923040642
"676",9,40,"f","h",0,1873,4,"A4","Label","A_Gatoo",21,"M",6,1.79175946922805,7.53529670244409
"677",9,41,"h","f",0,1615,4,"B1","Label","A_Gatoo",21,"M",6,1.79175946922805,7.38709023565676
"678",9,42,"f","h",0,1026,4,"A6","Label","A_Gatoo",21,"M",6,1.79175946922805,6.93342302573071
"679",9,43,"f","f",1,853,4,"A3","Label","A_Gatoo",21,"M",6,1.79175946922805,6.74875954749168
"680",9,44,"f","h",0,1126,4,"A5","Label","A_Gatoo",21,"M",6,1.79175946922805,7.02642680869964
"681",9,45,"h","f",0,1158,4,"B3","Label","A_Gatoo",21,"M",6,1.79175946922805,7.05444965813294
"682",9,46,"h","h",1,1295,4,"B5","Label","A_Gatoo",21,"M",6,1.79175946922805,7.16626597413364
"683",9,47,"f","f",1,975,4,"A2","Label","A_Gatoo",21,"M",6,1.79175946922805,6.88243747099785
"684",9,48,"h","h",1,1980,4,"B6","Label","A_Gatoo",21,"M",6,1.79175946922805,7.59085212368858
"685",9,49,"h","f",0,3546,5,"B2","Label","A_Gatoo",21,"M",6,1.79175946922805,8.17357548663415
"686",9,50,"h","h",1,5810,5,"B4","Label","A_Gatoo",21,"M",6,1.79175946922805,8.66733584984596
"687",9,51,"h","h",1,1511,5,"B5","Label","A_Gatoo",21,"M",6,1.79175946922805,7.32052696227274
"688",9,52,"h","h",1,1231,5,"B6","Label","A_Gatoo",21,"M",6,1.79175946922805,7.11558212618445
"689",9,53,"f","f",1,1400,5,"A5","Label","A_Gatoo",21,"M",6,1.79175946922805,7.24422751560335
"690",9,54,"f","f",1,1501,5,"A3","Label","A_Gatoo",21,"M",6,1.79175946922805,7.31388683163346
"691",9,55,"f","f",1,816,5,"A6","Label","A_Gatoo",21,"M",6,1.79175946922805,6.70441435496411
"692",9,56,"f","f",1,756,5,"A4","Label","A_Gatoo",21,"M",6,1.79175946922805,6.62804137617953
"693",9,57,"f","f",1,917,5,"A2","Label","A_Gatoo",21,"M",6,1.79175946922805,6.82110747225646
"694",9,58,"f","f",1,1605,5,"A1","Label","A_Gatoo",21,"M",6,1.79175946922805,7.38087903556412
"695",9,59,"h","h",1,1243,5,"B1","Label","A_Gatoo",21,"M",6,1.79175946922805,7.12528309151071
"696",9,60,"h","h",1,1144,5,"B3","Label","A_Gatoo",21,"M",6,1.79175946922805,7.04228617193974
"697",9,61,"f","f",1,1835,6,"A3","Label","A_Gatoo",21,"M",6,1.79175946922805,7.51479976048867
"698",9,62,"h","h",1,2504,6,"B3","Label","A_Gatoo",21,"M",6,1.79175946922805,7.82564473221999
"699",9,63,"h","h",1,1037,6,"B4","Label","A_Gatoo",21,"M",6,1.79175946922805,6.94408720822953
"700",9,64,"h","h",1,798,6,"B6","Label","A_Gatoo",21,"M",6,1.79175946922805,6.68210859744981
"701",9,65,"h","h",1,1165,6,"B2","Label","A_Gatoo",21,"M",6,1.79175946922805,7.0604763659998
"702",9,66,"f","f",1,968,6,"A1","Label","A_Gatoo",21,"M",6,1.79175946922805,6.87523208727658
"703",9,67,"f","f",1,994,6,"A5","Label","A_Gatoo",21,"M",6,1.79175946922805,6.90173720665657
"704",9,68,"f","f",1,1331,6,"A6","Label","A_Gatoo",21,"M",6,1.79175946922805,7.19368581839511
"705",9,69,"f","f",1,694,6,"A2","Label","A_Gatoo",21,"M",6,1.79175946922805,6.5424719605068
"706",9,70,"f","f",1,1420,6,"A4","Label","A_Gatoo",21,"M",6,1.79175946922805,7.25841215059531
"707",9,71,"h","h",1,2195,6,"B5","Label","A_Gatoo",21,"M",6,1.79175946922805,7.69393732550927
"708",9,72,"h","h",1,887,6,"B1","Label","A_Gatoo",21,"M",6,1.79175946922805,6.78784498230958
"709",9,253,"f","f",1,1033,0,"TestA1","Label","A_Gatoo",21,"M",6,1.79175946922805,6.94022246911964
"710",9,254,"f","f",1,672,0,"A6","Label","A_Gatoo",21,"M",6,1.79175946922805,6.51025834052315
"711",9,255,"f","f",1,476,0,"A5","Label","A_Gatoo",21,"M",6,1.79175946922805,6.16541785423142
"712",9,256,"f","f",1,497,0,"TestA2","Label","A_Gatoo",21,"M",6,1.79175946922805,6.20859002609663
"713",9,257,"h","h",1,807,0,"B5","Label","A_Gatoo",21,"M",6,1.79175946922805,6.69332366826995
"714",9,258,"h","h",1,1096,0,"TestB2","Label","A_Gatoo",21,"M",6,1.79175946922805,6.99942246750796
"715",9,259,"h","h",1,707,0,"B4","Label","A_Gatoo",21,"M",6,1.79175946922805,6.56103066589657
"716",9,260,"f","f",1,537,0,"A3","Label","A_Gatoo",21,"M",6,1.79175946922805,6.28599809450886
"717",9,261,"f","f",1,1105,0,"A4","Label","A_Gatoo",21,"M",6,1.79175946922805,7.00760061395185
"718",9,262,"h","h",1,853,0,"B6","Label","A_Gatoo",21,"M",6,1.79175946922805,6.74875954749168
"719",9,263,"h","h",1,977,0,"B3","Label","A_Gatoo",21,"M",6,1.79175946922805,6.88448665204278
"720",9,264,"h","h",1,848,0,"TestB1","Label","A_Gatoo",21,"M",6,1.79175946922805,6.7428806357919
"721",10,1,"h","h",1,6613,1,"B1","NoLabel","NoName",22,"F",2,0.693147180559945,8.79679268767466
"722",10,2,"h","h",1,3353,1,"B6","NoLabel","NoName",22,"F",2,0.693147180559945,8.11761074646623
"723",10,3,"f","f",1,1984,1,"A6","NoLabel","NoName",22,"F",2,0.693147180559945,7.59287028784482
"724",10,4,"h","f",0,2368,1,"B3","NoLabel","NoName",22,"F",2,0.693147180559945,7.7698009960039
"725",10,5,"h","h",1,1496,1,"B4","NoLabel","NoName",22,"F",2,0.693147180559945,7.31055015853442
"726",10,6,"f","h",0,1103,1,"A5","NoLabel","NoName",22,"F",2,0.693147180559945,7.0057890192535
"727",10,7,"h","f",0,2636,1,"B2","NoLabel","NoName",22,"F",2,0.693147180559945,7.8770178956224
"728",10,8,"h","h",1,1562,1,"B5","NoLabel","NoName",22,"F",2,0.693147180559945,7.35372233039963
"729",10,9,"f","h",0,817,1,"A4","NoLabel","NoName",22,"F",2,0.693147180559945,6.70563909486
"730",10,10,"f","f",1,1723,1,"A3","NoLabel","NoName",22,"F",2,0.693147180559945,7.45182223652793
"731",10,11,"f","f",1,1041,1,"A1","NoLabel","NoName",22,"F",2,0.693147180559945,6.94793706861497
"732",10,12,"f","f",1,567,1,"A2","NoLabel","NoName",22,"F",2,0.693147180559945,6.34035930372775
"733",10,13,"h","h",1,642,2,"B5","NoLabel","NoName",22,"F",2,0.693147180559945,6.46458830368996
"734",10,14,"h","h",1,712,2,"B2","NoLabel","NoName",22,"F",2,0.693147180559945,6.56807791141198
"735",10,15,"f","f",1,659,2,"A2","NoLabel","NoName",22,"F",2,0.693147180559945,6.49072353450251
"736",10,16,"f","f",1,537,2,"A1","NoLabel","NoName",22,"F",2,0.693147180559945,6.28599809450886
"737",10,17,"f","f",1,739,2,"A4","NoLabel","NoName",22,"F",2,0.693147180559945,6.6052979209482
"738",10,18,"h","h",1,823,2,"B1","NoLabel","NoName",22,"F",2,0.693147180559945,6.71295620067707
"739",10,19,"f","f",1,846,2,"A6","NoLabel","NoName",22,"F",2,0.693147180559945,6.74051935960622
"740",10,20,"h","h",1,780,2,"B3","NoLabel","NoName",22,"F",2,0.693147180559945,6.65929391968364
"741",10,21,"h","h",1,683,2,"B4","NoLabel","NoName",22,"F",2,0.693147180559945,6.52649485957079
"742",10,22,"f","f",1,818,2,"A3","NoLabel","NoName",22,"F",2,0.693147180559945,6.70686233660275
"743",10,23,"f","f",1,3682,2,"A5","NoLabel","NoName",22,"F",2,0.693147180559945,8.21121136179302
"744",10,24,"h","h",1,1837,2,"B6","NoLabel","NoName",22,"F",2,0.693147180559945,7.51588908521513
"745",10,253,"h","h",1,1276,0,"B3","NoLabel","NoName",22,"F",2,0.693147180559945,7.15148546390474
"746",10,254,"h","h",1,612,0,"TestB1","NoLabel","NoName",22,"F",2,0.693147180559945,6.41673228251233
"747",10,255,"f","f",1,638,0,"A6","NoLabel","NoName",22,"F",2,0.693147180559945,6.45833828334479
"748",10,256,"h","h",1,1321,0,"B5","NoLabel","NoName",22,"F",2,0.693147180559945,7.18614430452233
"749",10,257,"f","f",1,568,0,"A4","NoLabel","NoName",22,"F",2,0.693147180559945,6.34212141872115
"750",10,258,"h","h",1,568,0,"B4","NoLabel","NoName",22,"F",2,0.693147180559945,6.34212141872115
"751",10,259,"f","f",1,1335,0,"A5","NoLabel","NoName",22,"F",2,0.693147180559945,7.19668657083435
"752",10,260,"h","h",1,1257,0,"TestB2","NoLabel","NoName",22,"F",2,0.693147180559945,7.13648320859025
"753",10,261,"f","f",1,840,0,"A3","NoLabel","NoName",22,"F",2,0.693147180559945,6.73340189183736
"754",10,262,"f","f",1,599,0,"TestA1","NoLabel","NoName",22,"F",2,0.693147180559945,6.39526159811545
"755",10,263,"h","h",1,882,0,"B6","NoLabel","NoName",22,"F",2,0.693147180559945,6.78219205600679
"756",10,264,"f","f",1,591,0,"TestA2","NoLabel","NoName",22,"F",2,0.693147180559945,6.3818160174061
"757",11,1,"h","f",0,4346,1,"B2","NoLabel","NoName",22,"F",2,0.693147180559945,8.37701116081637
"758",11,2,"h","h",1,1366,1,"B5","NoLabel","NoName",22,"F",2,0.693147180559945,7.21964204013074
"759",11,3,"f","h",0,1014,1,"A3","NoLabel","NoName",22,"F",2,0.693147180559945,6.92165818415113
"760",11,4,"h","h",1,1464,1,"B1","NoLabel","NoName",22,"F",2,0.693147180559945,7.28892769452126
"761",11,5,"h","h",1,957,1,"B3","NoLabel","NoName",22,"F",2,0.693147180559945,6.86380339145295
"762",11,6,"h","h",1,704,1,"B4","NoLabel","NoName",22,"F",2,0.693147180559945,6.55677835615804
"763",11,7,"f","f",1,560,1,"A1","NoLabel","NoName",22,"F",2,0.693147180559945,6.32793678372919
"764",11,8,"f","f",1,943,1,"A6","NoLabel","NoName",22,"F",2,0.693147180559945,6.84906628263346
"765",11,9,"h","h",1,784,1,"B6","NoLabel","NoName",22,"F",2,0.693147180559945,6.66440902035041
"766",11,10,"f","f",1,1654,1,"A2","NoLabel","NoName",22,"F",2,0.693147180559945,7.41095187558364
"767",11,11,"f","f",1,2006,1,"A5","NoLabel","NoName",22,"F",2,0.693147180559945,7.60389796852188
"768",11,12,"f","f",1,790,1,"A4","NoLabel","NoName",22,"F",2,0.693147180559945,6.67203294546107
"769",11,13,"f","f",1,844,2,"A5","NoLabel","NoName",22,"F",2,0.693147180559945,6.73815249459596
"770",11,14,"f","f",1,631,2,"A4","NoLabel","NoName",22,"F",2,0.693147180559945,6.44730586254121
"771",11,15,"f","f",1,520,2,"A6","NoLabel","NoName",22,"F",2,0.693147180559945,6.25382881157547
"772",11,16,"f","f",1,938,2,"A2","NoLabel","NoName",22,"F",2,0.693147180559945,6.84374994900622
"773",11,17,"h","h",1,2249,2,"B2","NoLabel","NoName",22,"F",2,0.693147180559945,7.71824095195932
"774",11,18,"h","h",1,848,2,"B5","NoLabel","NoName",22,"F",2,0.693147180559945,6.7428806357919
"775",11,19,"h","h",1,1058,2,"B4","NoLabel","NoName",22,"F",2,0.693147180559945,6.96413561241824
"776",11,20,"h","h",1,573,2,"B1","NoLabel","NoName",22,"F",2,0.693147180559945,6.35088571671474
"777",11,21,"h","h",1,655,2,"B3","NoLabel","NoName",22,"F",2,0.693147180559945,6.48463523563525
"778",11,22,"h","h",1,714,2,"B6","NoLabel","NoName",22,"F",2,0.693147180559945,6.57088296233958
"779",11,23,"f","f",1,707,2,"A3","NoLabel","NoName",22,"F",2,0.693147180559945,6.56103066589657
"780",11,24,"f","f",1,979,2,"A1","NoLabel","NoName",22,"F",2,0.693147180559945,6.88653164253051
"781",11,253,"h","h",1,996,0,"B6","NoLabel","NoName",22,"F",2,0.693147180559945,6.9037472575846
"782",11,254,"h","h",1,671,0,"B5","NoLabel","NoName",22,"F",2,0.693147180559945,6.50876913697168
"783",11,255,"h","h",1,586,0,"B3","NoLabel","NoName",22,"F",2,0.693147180559945,6.37331978957701
"784",11,256,"h","h",1,667,0,"B4","NoLabel","NoName",22,"F",2,0.693147180559945,6.50279004591562
"785",11,257,"f","f",1,726,0,"A3","NoLabel","NoName",22,"F",2,0.693147180559945,6.5875500148248
"786",11,258,"h","h",1,678,0,"TestB1","NoLabel","NoName",22,"F",2,0.693147180559945,6.5191472879404
"787",11,259,"h","h",1,1889,0,"TestB2","NoLabel","NoName",22,"F",2,0.693147180559945,7.54380286750151
"788",11,260,"f","f",1,1521,0,"A6","NoLabel","NoName",22,"F",2,0.693147180559945,7.32712329225929
"789",11,261,"f","f",1,1040,0,"TestA2","NoLabel","NoName",22,"F",2,0.693147180559945,6.94697599213542
"790",11,262,"f","f",1,742,0,"TestA1","NoLabel","NoName",22,"F",2,0.693147180559945,6.60934924316738
"791",11,263,"f","f",1,1638,0,"A5","NoLabel","NoName",22,"F",2,0.693147180559945,7.40123126441302
"792",11,264,"f","f",1,1831,0,"A4","NoLabel","NoName",22,"F",2,0.693147180559945,7.51261754467451
"793",12,1,"f","f",1,2715,1,"A2","Label","A_Saldie",19,"M",1,0,7.90654723236804
"794",12,2,"f","f",1,1179,1,"A6","Label","A_Saldie",19,"M",1,0,7.07242190053737
"795",12,3,"h","h",1,1202,1,"B1","Label","A_Saldie",19,"M",1,0,7.09174211509515
"796",12,4,"h","h",1,1017,1,"B2","Label","A_Saldie",19,"M",1,0,6.92461239604856
"797",12,5,"f","f",1,896,1,"A3","Label","A_Saldie",19,"M",1,0,6.79794041297493
"798",12,6,"f","f",1,668,1,"A4","Label","A_Saldie",19,"M",1,0,6.50428817353665
"799",12,7,"h","h",1,700,1,"B5","Label","A_Saldie",19,"M",1,0,6.5510803350434
"800",12,8,"h","h",1,798,1,"B3","Label","A_Saldie",19,"M",1,0,6.68210859744981
"801",12,9,"h","h",1,708,1,"B4","Label","A_Saldie",19,"M",1,0,6.56244409369372
"802",12,10,"h","h",1,521,1,"B6","Label","A_Saldie",19,"M",1,0,6.25575004175337
"803",12,11,"f","f",1,989,1,"A5","Label","A_Saldie",19,"M",1,0,6.89669433162271
"804",12,12,"f","f",1,669,1,"A1","Label","A_Saldie",19,"M",1,0,6.50578406012823
"805",12,253,"h","h",1,748,0,"B6","Label","A_Saldie",19,"M",1,0,6.61740297797448
"806",12,254,"f","f",1,693,0,"A4","Label","A_Saldie",19,"M",1,0,6.5410299991899
"807",12,255,"f","f",1,535,0,"A3","Label","A_Saldie",19,"M",1,0,6.28226674689601
"808",12,256,"h","h",1,408,0,"B4","Label","A_Saldie",19,"M",1,0,6.01126717440416
"809",12,257,"f","f",1,479,0,"TestA2","Label","A_Saldie",19,"M",1,0,6.17170059741091
"810",12,258,"h","h",1,610,0,"TestB2","Label","A_Saldie",19,"M",1,0,6.41345895716736
"811",12,259,"f","f",1,553,0,"A5","Label","A_Saldie",19,"M",1,0,6.31535800152233
"812",12,260,"h","h",1,524,0,"TestB1","Label","A_Saldie",19,"M",1,0,6.26149168432104
"813",12,261,"h","h",1,528,0,"B3","Label","A_Saldie",19,"M",1,0,6.26909628370626
"814",12,262,"h","f",0,493,0,"B5","Label","A_Saldie",19,"M",1,0,6.20050917404269
"815",12,263,"f","f",1,531,0,"TestA1","Label","A_Saldie",19,"M",1,0,6.27476202124194
"816",12,264,"f","f",1,841,0,"A6","Label","A_Saldie",19,"M",1,0,6.73459165997295
"817",13,1,"h","h",1,4546,1,"B6","Label","A_Gatoo",20,"F",3,1.09861228866811,8.42200300441249
"818",13,2,"h","h",1,1956,1,"B4","Label","A_Gatoo",20,"F",3,1.09861228866811,7.57865685059476
"819",13,3,"h","f",0,4124,1,"B3","Label","A_Gatoo",20,"F",3,1.09861228866811,8.32457884513685
"820",13,4,"h","h",1,2011,1,"B1","Label","A_Gatoo",20,"F",3,1.09861228866811,7.60638738977265
"821",13,5,"f","f",1,1159,1,"A6","Label","A_Gatoo",20,"F",3,1.09861228866811,7.05531284333975
"822",13,6,"f","h",0,1712,1,"A2","Label","A_Gatoo",20,"F",3,1.09861228866811,7.44541755670169
"823",13,7,"f","f",1,1593,1,"A1","Label","A_Gatoo",20,"F",3,1.09861228866811,7.37337430991005
"824",13,8,"f","h",0,1455,1,"A4","Label","A_Gatoo",20,"F",3,1.09861228866811,7.28276117960559
"825",13,9,"f","f",1,925,1,"A3","Label","A_Gatoo",20,"F",3,1.09861228866811,6.82979373751242
"826",13,10,"f","h",0,1740,1,"A5","Label","A_Gatoo",20,"F",3,1.09861228866811,7.46164039220858
"827",13,11,"h","f",0,1014,1,"B2","Label","A_Gatoo",20,"F",3,1.09861228866811,6.92165818415113
"828",13,12,"h","h",1,791,1,"B5","Label","A_Gatoo",20,"F",3,1.09861228866811,6.67329796776765
"829",13,13,"h","f",0,1066,2,"B3","Label","A_Gatoo",20,"F",3,1.09861228866811,6.97166860472579
"830",13,14,"f","h",0,2684,2,"A3","Label","A_Gatoo",20,"F",3,1.09861228866811,7.89506349809157
"831",13,15,"f","f",1,2353,2,"A6","Label","A_Gatoo",20,"F",3,1.09861228866811,7.76344638872736
"832",13,16,"h","h",1,1359,2,"B4","Label","A_Gatoo",20,"F",3,1.09861228866811,7.21450441415114
"833",13,17,"h","h",1,720,2,"B2","Label","A_Gatoo",20,"F",3,1.09861228866811,6.5792512120101
"834",13,18,"f","f",1,657,2,"A4","Label","A_Gatoo",20,"F",3,1.09861228866811,6.48768401848461
"835",13,19,"f","f",1,1059,2,"A5","Label","A_Gatoo",20,"F",3,1.09861228866811,6.96508034560141
"836",13,20,"h","h",1,1040,2,"B6","Label","A_Gatoo",20,"F",3,1.09861228866811,6.94697599213542
"837",13,21,"h","h",1,647,2,"B5","Label","A_Gatoo",20,"F",3,1.09861228866811,6.4723462945009
"838",13,22,"f","f",1,975,2,"A2","Label","A_Gatoo",20,"F",3,1.09861228866811,6.88243747099785
"839",13,23,"f","f",1,1301,2,"A1","Label","A_Gatoo",20,"F",3,1.09861228866811,7.1708884785125
"840",13,24,"h","h",1,1359,2,"B1","Label","A_Gatoo",20,"F",3,1.09861228866811,7.21450441415114
"841",13,25,"f","f",1,683,3,"A6","Label","A_Gatoo",20,"F",3,1.09861228866811,6.52649485957079
"842",13,26,"h","h",1,654,3,"B3","Label","A_Gatoo",20,"F",3,1.09861228866811,6.4831073514572
"843",13,27,"f","f",1,613,3,"A5","Label","A_Gatoo",20,"F",3,1.09861228866811,6.41836493593621
"844",13,28,"h","h",1,841,3,"B5","Label","A_Gatoo",20,"F",3,1.09861228866811,6.73459165997295
"845",13,29,"h","h",1,1109,3,"B1","Label","A_Gatoo",20,"F",3,1.09861228866811,7.01121398735037
"846",13,30,"h","h",1,848,3,"B2","Label","A_Gatoo",20,"F",3,1.09861228866811,6.7428806357919
"847",13,31,"f","f",1,1193,3,"A2","Label","A_Gatoo",20,"F",3,1.09861228866811,7.08422642209792
"848",13,32,"h","h",1,718,3,"B4","Label","A_Gatoo",20,"F",3,1.09861228866811,6.57646956904822
"849",13,33,"f","f",1,808,3,"A1","Label","A_Gatoo",20,"F",3,1.09861228866811,6.69456205852109
"850",13,34,"f","f",1,1357,3,"A4","Label","A_Gatoo",20,"F",3,1.09861228866811,7.21303165983487
"851",13,35,"f","f",1,659,3,"A3","Label","A_Gatoo",20,"F",3,1.09861228866811,6.49072353450251
"852",13,36,"h","h",1,877,3,"B6","Label","A_Gatoo",20,"F",3,1.09861228866811,6.77650699237218
"853",13,253,"h","h",1,1415,0,"TestB2","Label","A_Gatoo",20,"F",3,1.09861228866811,7.25488481007734
"854",13,254,"f","f",1,675,0,"A3","Label","A_Gatoo",20,"F",3,1.09861228866811,6.51471269087253
"855",13,255,"h","h",1,670,0,"B3","Label","A_Gatoo",20,"F",3,1.09861228866811,6.50727771238501
"856",13,256,"f","f",1,1142,0,"A5","Label","A_Gatoo",20,"F",3,1.09861228866811,7.04053639021596
"857",13,257,"h","h",1,720,0,"B5","Label","A_Gatoo",20,"F",3,1.09861228866811,6.5792512120101
"858",13,258,"f","f",1,665,0,"A4","Label","A_Gatoo",20,"F",3,1.09861228866811,6.49978704065585
"859",13,259,"f","f",1,908,0,"A6","Label","A_Gatoo",20,"F",3,1.09861228866811,6.81124437860129
"860",13,260,"f","f",1,760,0,"TestA1","Label","A_Gatoo",20,"F",3,1.09861228866811,6.63331843328038
"861",13,261,"h","h",1,750,0,"TestB1","Label","A_Gatoo",20,"F",3,1.09861228866811,6.62007320653036
"862",13,262,"h","h",1,624,0,"B4","Label","A_Gatoo",20,"F",3,1.09861228866811,6.43615036836943
"863",13,263,"f","f",1,2605,0,"TestA2","Label","A_Gatoo",20,"F",3,1.09861228866811,7.86518795418747
"864",13,264,"h","h",1,750,0,"B6","Label","A_Gatoo",20,"F",3,1.09861228866811,6.62007320653036
"865",14,1,"f","f",1,1841,1,"A5","NoLabel","NoName",21,"F",1,0,7.51806418123308
"866",14,2,"h","h",1,2858,1,"B3","NoLabel","NoName",21,"F",1,0,7.95787735848981
"867",14,3,"h","h",1,1003,1,"B4","NoLabel","NoName",21,"F",1,0,6.91075078796194
"868",14,4,"f","f",1,770,1,"A3","NoLabel","NoName",21,"F",1,0,6.64639051484773
"869",14,5,"f","f",1,689,1,"A6","NoLabel","NoName",21,"F",1,0,6.53524127101366
"870",14,6,"f","f",1,1861,1,"A2","NoLabel","NoName",21,"F",1,0,7.52886925664225
"871",14,7,"h","h",1,1045,1,"B1","NoLabel","NoName",21,"F",1,0,6.95177216439891
"872",14,8,"f","f",1,746,1,"A1","NoLabel","NoName",21,"F",1,0,6.61472560020376
"873",14,9,"f","f",1,912,1,"A4","NoLabel","NoName",21,"F",1,0,6.81563999007433
"874",14,10,"h","h",1,802,1,"B6","NoLabel","NoName",21,"F",1,0,6.68710860786651
"875",14,11,"h","h",1,825,1,"B5","NoLabel","NoName",21,"F",1,0,6.71538338633468
"876",14,12,"h","h",1,1078,1,"B2","NoLabel","NoName",21,"F",1,0,6.98286275146894
"877",14,253,"f","f",1,1804,0,"TestA2","NoLabel","NoName",21,"F",1,0,7.49776170062257
"878",14,254,"f","f",1,661,0,"A6","NoLabel","NoName",21,"F",1,0,6.49375383985169
"879",14,255,"h","h",1,735,0,"B6","NoLabel","NoName",21,"F",1,0,6.59987049921284
"880",14,256,"h","h",1,841,0,"B3","NoLabel","NoName",21,"F",1,0,6.73459165997295
"881",14,257,"f","f",1,955,0,"A5","NoLabel","NoName",21,"F",1,0,6.86171134048073
"882",14,258,"f","h",0,2341,0,"TestA1","NoLabel","NoName",21,"F",1,0,7.75833346749091
"883",14,259,"f","f",1,987,0,"A4","NoLabel","NoName",21,"F",1,0,6.89467003943348
"884",14,260,"h","h",1,831,0,"TestB2","NoLabel","NoName",21,"F",1,0,6.72262979485545
"885",14,261,"h","h",1,974,0,"B4","NoLabel","NoName",21,"F",1,0,6.88141130364254
"886",14,262,"h","h",1,874,0,"B5","NoLabel","NoName",21,"F",1,0,6.77308037565554
"887",14,263,"f","f",1,791,0,"A3","NoLabel","NoName",21,"F",1,0,6.67329796776765
"888",14,264,"h","h",1,678,0,"TestB1","NoLabel","NoName",21,"F",1,0,6.5191472879404
"889",15,1,"f","f",1,8882,1,"A2","NoLabel","NoName",21,"F",2,0.693147180559945,9.09178203585205
"890",15,2,"h","f",0,8258,1,"B5","NoLabel","NoName",21,"F",2,0.693147180559945,9.01893770644604
"891",15,3,"","",0,NA,1,"A1","NoLabel","NoName",21,"F",2,0.693147180559945,NA
"892",15,4,"h","h",1,2520,1,"B4","NoLabel","NoName",21,"F",2,0.693147180559945,7.83201418050547
"893",15,5,"h","f",0,2552,1,"B1","NoLabel","NoName",21,"F",2,0.693147180559945,7.84463264446468
"894",15,6,"f","f",1,2897,1,"A4","NoLabel","NoName",21,"F",2,0.693147180559945,7.97143099776935
"895",15,7,"f","f",1,2709,1,"A3","NoLabel","NoName",21,"F",2,0.693147180559945,7.9043348420851
"896",15,8,"h","h",1,2124,1,"B6","NoLabel","NoName",21,"F",2,0.693147180559945,7.66105638236183
"897",15,9,"h","h",1,4600,1,"B2","NoLabel","NoName",21,"F",2,0.693147180559945,8.43381158247719
"898",15,10,"f","f",1,5604,1,"A6","NoLabel","NoName",21,"F",2,0.693147180559945,8.6312359074569
"899",15,11,"h","h",1,2327,1,"B3","NoLabel","NoName",21,"F",2,0.693147180559945,7.75233516330229
"900",15,12,"f","f",1,2363,1,"A5","NoLabel","NoName",21,"F",2,0.693147180559945,7.76768727718691
"901",15,13,"h","h",1,4404,2,"B5","NoLabel","NoName",21,"F",2,0.693147180559945,8.39026849784257
"902",15,14,"h","h",1,1160,2,"B6","NoLabel","NoName",21,"F",2,0.693147180559945,7.05617528410041
"903",15,15,"f","f",1,3408,2,"A6","NoLabel","NoName",21,"F",2,0.693147180559945,8.13388088794921
"904",15,16,"f","f",1,1015,2,"A1","NoLabel","NoName",21,"F",2,0.693147180559945,6.92264389147589
"905",15,17,"h","h",1,1007,2,"B2","NoLabel","NoName",21,"F",2,0.693147180559945,6.91473089271856
"906",15,18,"f","f",1,1340,2,"A4","NoLabel","NoName",21,"F",2,0.693147180559945,7.20042489294496
"907",15,19,"f","f",1,1274,2,"A5","NoLabel","NoName",21,"F",2,0.693147180559945,7.14991683613211
"908",15,20,"h","h",1,1636,2,"B1","NoLabel","NoName",21,"F",2,0.693147180559945,7.40000951716269
"909",15,21,"h","h",1,720,2,"B3","NoLabel","NoName",21,"F",2,0.693147180559945,6.5792512120101
"910",15,22,"f","f",1,810,2,"A2","NoLabel","NoName",21,"F",2,0.693147180559945,6.69703424766648
"911",15,23,"f","f",1,2381,2,"A3","NoLabel","NoName",21,"F",2,0.693147180559945,7.77527584648686
"912",15,24,"h","h",1,773,2,"B4","NoLabel","NoName",21,"F",2,0.693147180559945,6.65027904858742
"913",15,253,"h","h",1,1064,0,"B6","NoLabel","NoName",21,"F",2,0.693147180559945,6.96979066990159
"914",15,254,"f","f",1,904,0,"A5","NoLabel","NoName",21,"F",2,0.693147180559945,6.80682936039218
"915",15,255,"f","f",1,1389,0,"A6","NoLabel","NoName",21,"F",2,0.693147180559945,7.23633934275434
"916",15,256,"h","h",1,587,0,"B4","NoLabel","NoName",21,"F",2,0.693147180559945,6.3750248198281
"917",15,257,"f","f",1,709,0,"A4","NoLabel","NoName",21,"F",2,0.693147180559945,6.56385552653213
"918",15,258,"h","h",1,851,0,"B5","NoLabel","NoName",21,"F",2,0.693147180559945,6.74641212857337
"919",15,259,"f","f",1,710,0,"TestA1","NoLabel","NoName",21,"F",2,0.693147180559945,6.56526497003536
"920",15,260,"f","f",1,890,0,"A3","NoLabel","NoName",21,"F",2,0.693147180559945,6.79122146272619
"921",15,261,"h","h",1,1623,0,"TestB2","NoLabel","NoName",21,"F",2,0.693147180559945,7.39203156751459
"922",15,262,"h","h",1,659,0,"TestB1","NoLabel","NoName",21,"F",2,0.693147180559945,6.49072353450251
"923",15,263,"f","f",1,714,0,"TestA2","NoLabel","NoName",21,"F",2,0.693147180559945,6.57088296233958
"924",15,264,"h","h",1,646,0,"B3","NoLabel","NoName",21,"F",2,0.693147180559945,6.4707995037826
"925",16,1,"h","h",1,2880,1,"B5","Label","A_Saldie",39,"F",2,0.693147180559945,7.96554557312999
"926",16,2,"f","f",1,2283,1,"A3","Label","A_Saldie",39,"F",2,0.693147180559945,7.7332456465298
"927",16,3,"h","f",0,1970,1,"B2","Label","A_Saldie",39,"F",2,0.693147180559945,7.58578882173203
"928",16,4,"f","h",0,2831,1,"A1","Label","A_Saldie",39,"F",2,0.693147180559945,7.9483852851119
"929",16,5,"h","h",1,1704,1,"B1","Label","A_Saldie",39,"F",2,0.693147180559945,7.44073370738926
"930",16,6,"h","f",0,2651,1,"B4","Label","A_Saldie",39,"F",2,0.693147180559945,7.88269220628903
"931",16,7,"h","h",1,1241,1,"B6","Label","A_Saldie",39,"F",2,0.693147180559945,7.12367278520461
"932",16,8,"f","h",0,1011,1,"A5","Label","A_Saldie",39,"F",2,0.693147180559945,6.91869521902047
"933",16,9,"f","f",1,2028,1,"A4","Label","A_Saldie",39,"F",2,0.693147180559945,7.61480536471107
"934",16,10,"f","f",1,2077,1,"A6","Label","A_Saldie",39,"F",2,0.693147180559945,7.63867982387611
"935",16,11,"f","f",1,1498,1,"A2","Label","A_Saldie",39,"F",2,0.693147180559945,7.31188616407716
"936",16,12,"h","h",1,1066,1,"B3","Label","A_Saldie",39,"F",2,0.693147180559945,6.97166860472579
"937",16,13,"h","h",1,1112,2,"B2","Label","A_Saldie",39,"F",2,0.693147180559945,7.01391547481053
"938",16,14,"f","f",1,746,2,"A1","Label","A_Saldie",39,"F",2,0.693147180559945,6.61472560020376
"939",16,15,"f","f",1,967,2,"A2","Label","A_Saldie",39,"F",2,0.693147180559945,6.87419849545329
"940",16,16,"h","h",1,708,2,"B6","Label","A_Saldie",39,"F",2,0.693147180559945,6.56244409369372
"941",16,17,"h","h",1,654,2,"B4","Label","A_Saldie",39,"F",2,0.693147180559945,6.4831073514572
"942",16,18,"f","f",1,1031,2,"A3","Label","A_Saldie",39,"F",2,0.693147180559945,6.93828448401696
"943",16,19,"f","f",1,803,2,"A4","Label","A_Saldie",39,"F",2,0.693147180559945,6.68835471394676
"944",16,20,"h","h",1,650,2,"B3","Label","A_Saldie",39,"F",2,0.693147180559945,6.47697236288968
"945",16,21,"h","h",1,565,2,"B5","Label","A_Saldie",39,"F",2,0.693147180559945,6.33682573114644
"946",16,22,"f","f",1,1156,2,"A6","Label","A_Saldie",39,"F",2,0.693147180559945,7.05272104923232
"947",16,23,"h","h",1,642,2,"B1","Label","A_Saldie",39,"F",2,0.693147180559945,6.46458830368996
"948",16,24,"f","f",1,1074,2,"A5","Label","A_Saldie",39,"F",2,0.693147180559945,6.97914527506881
"949",16,253,"h","h",1,792,0,"B6","Label","A_Saldie",39,"F",2,0.693147180559945,6.67456139181443
"950",16,254,"f","f",1,716,0,"A4","Label","A_Saldie",39,"F",2,0.693147180559945,6.57368016696065
"951",16,255,"h","h",1,671,0,"B4","Label","A_Saldie",39,"F",2,0.693147180559945,6.50876913697168
"952",16,256,"f","f",1,784,0,"TestA2","Label","A_Saldie",39,"F",2,0.693147180559945,6.66440902035041
"953",16,257,"f","f",1,879,0,"A3","Label","A_Saldie",39,"F",2,0.693147180559945,6.77878489768518
"954",16,258,"f","f",1,796,0,"A6","Label","A_Saldie",39,"F",2,0.693147180559945,6.67959918584438
"955",16,259,"h","h",1,759,0,"TestB2","Label","A_Saldie",39,"F",2,0.693147180559945,6.63200177739563
"956",16,260,"h","h",1,618,0,"TestB1","Label","A_Saldie",39,"F",2,0.693147180559945,6.42648845745769
"957",16,261,"f","f",1,806,0,"TestA1","Label","A_Saldie",39,"F",2,0.693147180559945,6.69208374250663
"958",16,262,"h","h",1,768,0,"B3","Label","A_Saldie",39,"F",2,0.693147180559945,6.64378973314767
"959",16,263,"h","h",1,764,0,"B5","Label","A_Saldie",39,"F",2,0.693147180559945,6.63856778916652
"960",16,264,"f","f",1,682,0,"A5","Label","A_Saldie",39,"F",2,0.693147180559945,6.52502965784346
"961",17,1,"f","f",1,2912,1,"A1","Label","A_Gatoo",19,"F",2,0.693147180559945,7.97659540931658
"962",17,2,"h","h",1,1450,1,"B4","Label","A_Gatoo",19,"F",2,0.693147180559945,7.27931883541462
"963",17,3,"h","h",1,959,1,"B6","Label","A_Gatoo",19,"F",2,0.693147180559945,6.86589107488344
"964",17,4,"f","f",1,1147,1,"A3","Label","A_Gatoo",19,"F",2,0.693147180559945,7.04490511712937
"965",17,5,"h","f",0,813,1,"B3","Label","A_Gatoo",19,"F",2,0.693147180559945,6.70073110954781
"966",17,6,"f","h",0,954,1,"A4","Label","A_Gatoo",19,"F",2,0.693147180559945,6.86066367144829
"967",17,7,"h","f",0,3274,1,"B2","Label","A_Gatoo",19,"F",2,0.693147180559945,8.09376775793108
"968",17,8,"h","f",0,1433,1,"B5","Label","A_Gatoo",19,"F",2,0.693147180559945,7.26752542782817
"969",17,9,"f","h",0,1507,1,"A6","Label","A_Gatoo",19,"F",2,0.693147180559945,7.3178761986265
"970",17,10,"h","f",0,1843,1,"B1","Label","A_Gatoo",19,"F",2,0.693147180559945,7.51914995766982
"971",17,11,"f","f",1,784,1,"A5","Label","A_Gatoo",19,"F",2,0.693147180559945,6.66440902035041
"972",17,12,"f","f",1,878,1,"A2","Label","A_Gatoo",19,"F",2,0.693147180559945,6.77764659363512
"973",17,13,"h","h",1,509,2,"B2","Label","A_Gatoo",19,"F",2,0.693147180559945,6.23244801655052
"974",17,14,"h","h",1,661,2,"B5","Label","A_Gatoo",19,"F",2,0.693147180559945,6.49375383985169
"975",17,15,"f","f",1,3232,2,"A2","Label","A_Gatoo",19,"F",2,0.693147180559945,8.08085641964099
"976",17,16,"f","f",1,514,2,"A6","Label","A_Gatoo",19,"F",2,0.693147180559945,6.24222326545517
"977",17,17,"h","h",1,430,2,"B1","Label","A_Gatoo",19,"F",2,0.693147180559945,6.06378520868761
"978",17,18,"h","h",1,1209,2,"B6","Label","A_Gatoo",19,"F",2,0.693147180559945,7.09754885061479
"979",17,19,"h","h",1,512,2,"B4","Label","A_Gatoo",19,"F",2,0.693147180559945,6.23832462503951
"980",17,20,"h","h",1,653,2,"B3","Label","A_Gatoo",19,"F",2,0.693147180559945,6.48157712927643
"981",17,21,"f","f",1,581,2,"A4","Label","A_Gatoo",19,"F",2,0.693147180559945,6.36475075685191
"982",17,22,"f","f",1,490,2,"A3","Label","A_Gatoo",19,"F",2,0.693147180559945,6.19440539110467
"983",17,23,"f","f",1,563,2,"A5","Label","A_Gatoo",19,"F",2,0.693147180559945,6.33327962813969
"984",17,24,"f","f",1,459,2,"A1","Label","A_Gatoo",19,"F",2,0.693147180559945,6.12905021006055
"985",17,253,"h","h",1,808,0,"B3","Label","A_Gatoo",19,"F",2,0.693147180559945,6.69456205852109
"986",17,254,"f","f",1,1074,0,"A5","Label","A_Gatoo",19,"F",2,0.693147180559945,6.97914527506881
"987",17,255,"h","h",1,760,0,"B4","Label","A_Gatoo",19,"F",2,0.693147180559945,6.63331843328038
"988",17,256,"h","h",1,582,0,"TestB1","Label","A_Gatoo",19,"F",2,0.693147180559945,6.36647044773144
"989",17,257,"f","f",1,642,0,"TestA1","Label","A_Gatoo",19,"F",2,0.693147180559945,6.46458830368996
"990",17,258,"h","h",1,532,0,"TestB2","Label","A_Gatoo",19,"F",2,0.693147180559945,6.27664348934164
"991",17,259,"f","f",1,504,0,"A3","Label","A_Gatoo",19,"F",2,0.693147180559945,6.22257626807137
"992",17,260,"h","h",1,484,0,"B5","Label","A_Gatoo",19,"F",2,0.693147180559945,6.18208490671663
"993",17,261,"f","f",1,469,0,"A6","Label","A_Gatoo",19,"F",2,0.693147180559945,6.15060276844628
"994",17,262,"f","f",1,509,0,"A4","Label","A_Gatoo",19,"F",2,0.693147180559945,6.23244801655052
"995",17,263,"h","h",1,691,0,"B6","Label","A_Gatoo",19,"F",2,0.693147180559945,6.53813982376767
"996",17,264,"f","f",1,435,0,"TestA2","Label","A_Gatoo",19,"F",2,0.693147180559945,6.07534603108868
"997",18,1,"f","f",1,3696,1,"A3","NoLabel","NoName",22,"F",2,0.693147180559945,8.21500643276157
"998",18,2,"h","f",0,3022,1,"B3","NoLabel","NoName",22,"F",2,0.693147180559945,8.01367414283268
"999",18,3,"h","h",1,3049,1,"B2","NoLabel","NoName",22,"F",2,0.693147180559945,8.02256894698825
"1000",18,4,"f","f",1,1198,1,"A4","NoLabel","NoName",22,"F",2,0.693147180559945,7.08840877867539
"1001",18,5,"h","h",1,2342,1,"B6","NoLabel","NoName",22,"F",2,0.693147180559945,7.75876054415766
"1002",18,6,"f","h",0,4400,1,"A5","NoLabel","NoName",22,"F",2,0.693147180559945,8.38935981990635
"1003",18,7,"f","f",1,1235,1,"A2","NoLabel","NoName",22,"F",2,0.693147180559945,7.11882624906208
"1004",18,8,"f","f",1,1494,1,"A1","NoLabel","NoName",22,"F",2,0.693147180559945,7.30921236569276
"1005",18,9,"f","h",0,1960,1,"A6","NoLabel","NoName",22,"F",2,0.693147180559945,7.58069975222456
"1006",18,10,"h","h",1,2220,1,"B1","NoLabel","NoName",22,"F",2,0.693147180559945,7.70526247486633
"1007",18,11,"h","h",1,1390,1,"B4","NoLabel","NoName",22,"F",2,0.693147180559945,7.23705902612474
"1008",18,12,"h","h",1,1659,1,"B5","NoLabel","NoName",22,"F",2,0.693147180559945,7.41397029019044
"1009",18,13,"h","h",1,1479,2,"B2","NoLabel","NoName",22,"F",2,0.693147180559945,7.2991214627108
"1010",18,14,"f","f",1,978,2,"A1","NoLabel","NoName",22,"F",2,0.693147180559945,6.88550967003482
"1011",18,15,"h","h",1,1060,2,"B3","NoLabel","NoName",22,"F",2,0.693147180559945,6.96602418710611
"1012",18,16,"h","h",1,1427,2,"B4","NoLabel","NoName",22,"F",2,0.693147180559945,7.26332961747684
"1013",18,17,"f","f",1,1629,2,"A4","NoLabel","NoName",22,"F",2,0.693147180559945,7.39572160860205
"1014",18,18,"f","f",1,1060,2,"A2","NoLabel","NoName",22,"F",2,0.693147180559945,6.96602418710611
"1015",18,19,"h","h",1,1003,2,"B5","NoLabel","NoName",22,"F",2,0.693147180559945,6.91075078796194
"1016",18,20,"f","f",1,2183,2,"A5","NoLabel","NoName",22,"F",2,0.693147180559945,7.68845535654994
"1017",18,21,"f","f",1,1464,2,"A6","NoLabel","NoName",22,"F",2,0.693147180559945,7.28892769452126
"1018",18,22,"h","h",1,770,2,"B6","NoLabel","NoName",22,"F",2,0.693147180559945,6.64639051484773
"1019",18,23,"h","h",1,800,2,"B1","NoLabel","NoName",22,"F",2,0.693147180559945,6.68461172766793
"1020",18,24,"f","f",1,2736,2,"A3","NoLabel","NoName",22,"F",2,0.693147180559945,7.91425227874244
"1021",18,253,"h","h",1,1258,0,"TestB2","NoLabel","NoName",22,"F",2,0.693147180559945,7.13727843726039
"1022",18,254,"f","f",1,1288,0,"A3","NoLabel","NoName",22,"F",2,0.693147180559945,7.1608459066643
"1023",18,255,"f","f",1,1554,0,"A6","NoLabel","NoName",22,"F",2,0.693147180559945,7.34858753092759
"1024",18,256,"h","h",1,1937,0,"B5","NoLabel","NoName",22,"F",2,0.693147180559945,7.568895663407
"1025",18,257,"f","f",1,1322,0,"A5","NoLabel","NoName",22,"F",2,0.693147180559945,7.18690102041163
"1026",18,258,"f","f",1,2537,0,"TestA1","NoLabel","NoName",22,"F",2,0.693147180559945,7.83873755959928
"1027",18,259,"h","h",1,1359,0,"B6","NoLabel","NoName",22,"F",2,0.693147180559945,7.21450441415114
"1028",18,260,"f","f",1,1272,0,"A4","NoLabel","NoName",22,"F",2,0.693147180559945,7.14834574390007
"1029",18,261,"h","h",1,1325,0,"TestB1","NoLabel","NoName",22,"F",2,0.693147180559945,7.18916773842032
"1030",18,262,"h","h",1,1359,0,"B3","NoLabel","NoName",22,"F",2,0.693147180559945,7.21450441415114
"1031",18,263,"h","h",1,1235,0,"B4","NoLabel","NoName",22,"F",2,0.693147180559945,7.11882624906208
"1032",18,264,"f","f",1,914,0,"TestA2","NoLabel","NoName",22,"F",2,0.693147180559945,6.81783057145415
"1033",19,1,"f","h",0,3663,1,"A5","NoLabel","NoName",20,"F",2,0.693147180559945,8.20603776277881
"1034",19,2,"h","f",0,1677,1,"B1","NoLabel","NoName",20,"F",2,0.693147180559945,7.42476176182321
"1035",19,3,"h","f",0,4271,1,"B6","NoLabel","NoName",20,"F",2,0.693147180559945,8.35960327084147
"1036",19,4,"f","f",1,1948,1,"A1","NoLabel","NoName",20,"F",2,0.693147180559945,7.57455848420248
"1037",19,5,"f","h",0,2103,1,"A2","NoLabel","NoName",20,"F",2,0.693147180559945,7.6511201757027
"1038",19,6,"f","f",1,2061,1,"A4","NoLabel","NoName",20,"F",2,0.693147180559945,7.63094658089046
"1039",19,7,"f","h",0,2667,1,"A3","NoLabel","NoName",20,"F",2,0.693147180559945,7.88870952418201
"1040",19,8,"h","h",1,1767,1,"B5","NoLabel","NoName",20,"F",2,0.693147180559945,7.4770384723197
"1041",19,9,"f","f",1,1262,1,"A6","NoLabel","NoName",20,"F",2,0.693147180559945,7.14045304310116
"1042",19,10,"h","h",1,1186,1,"B3","NoLabel","NoName",20,"F",2,0.693147180559945,7.07834157955767
"1043",19,11,"h","h",1,1442,1,"B2","NoLabel","NoName",20,"F",2,0.693147180559945,7.27378631784489
"1044",19,12,"h","h",1,881,1,"B4","NoLabel","NoName",20,"F",2,0.693147180559945,6.78105762593618
"1045",19,13,"f","f",1,926,2,"A4","NoLabel","NoName",20,"F",2,0.693147180559945,6.83087423464618
"1046",19,14,"h","h",1,942,2,"B4","NoLabel","NoName",20,"F",2,0.693147180559945,6.84800527457636
"1047",19,15,"h","h",1,981,2,"B3","NoLabel","NoName",20,"F",2,0.693147180559945,6.88857245956536
"1048",19,16,"f","f",1,701,2,"A6","NoLabel","NoName",20,"F",2,0.693147180559945,6.55250788703459
"1049",19,17,"h","h",1,946,2,"B6","NoLabel","NoName",20,"F",2,0.693147180559945,6.85224256905188
"1050",19,18,"h","h",1,1073,2,"B5","NoLabel","NoName",20,"F",2,0.693147180559945,6.9782137426307
"1051",19,19,"f","f",1,616,2,"A3","NoLabel","NoName",20,"F",2,0.693147180559945,6.42324696353352
"1052",19,20,"f","f",1,1153,2,"A1","NoLabel","NoName",20,"F",2,0.693147180559945,7.05012252026906
"1053",19,21,"h","h",1,722,2,"B2","NoLabel","NoName",20,"F",2,0.693147180559945,6.58202513889283
