"","Subject","TrialId","CRESP","RESP","ACC","RT","Block","Stimulus","Condition","CategoryName","NBlocks","LogNBlocks","LogRT"
"1",12,1,"f","f",1,2715,1,"A2","Label","A_Saldie",1,0,7.90654723236804
"2",12,2,"f","f",1,1179,1,"A6","Label","A_Saldie",1,0,7.07242190053737
"3",12,3,"h","h",1,1202,1,"B1","Label","A_Saldie",1,0,7.09174211509515
"4",12,4,"h","h",1,1017,1,"B2","Label","A_Saldie",1,0,6.92461239604856
"5",12,5,"f","f",1,896,1,"A3","Label","A_Saldie",1,0,6.79794041297493
"6",12,6,"f","f",1,668,1,"A4","Label","A_Saldie",1,0,6.50428817353665
"7",12,7,"h","h",1,700,1,"B5","Label","A_Saldie",1,0,6.5510803350434
"8",12,8,"h","h",1,798,1,"B3","Label","A_Saldie",1,0,6.68210859744981
"9",12,9,"h","h",1,708,1,"B4","Label","A_Saldie",1,0,6.56244409369372
"10",12,10,"h","h",1,521,1,"B6","Label","A_Saldie",1,0,6.25575004175337
"11",12,11,"f","f",1,989,1,"A5","Label","A_Saldie",1,0,6.89669433162271
"12",12,12,"f","f",1,669,1,"A1","Label","A_Saldie",1,0,6.50578406012823
"13",12,253,"h","h",1,748,0,"B6","Label","A_Saldie",1,0,6.61740297797448
"14",12,254,"f","f",1,693,0,"A4","Label","A_Saldie",1,0,6.5410299991899
"15",12,255,"f","f",1,535,0,"A3","Label","A_Saldie",1,0,6.28226674689601
"16",12,256,"h","h",1,408,0,"B4","Label","A_Saldie",1,0,6.01126717440416
"17",12,257,"f","f",1,479,0,"TestA2","Label","A_Saldie",1,0,6.17170059741091
"18",12,258,"h","h",1,610,0,"TestB2","Label","A_Saldie",1,0,6.41345895716736
"19",12,259,"f","f",1,553,0,"A5","Label","A_Saldie",1,0,6.31535800152233
"20",12,260,"h","h",1,524,0,"TestB1","Label","A_Saldie",1,0,6.26149168432104
"21",12,261,"h","h",1,528,0,"B3","Label","A_Saldie",1,0,6.26909628370626
"22",12,262,"h","f",0,493,0,"B5","Label","A_Saldie",1,0,6.20050917404269
"23",12,263,"f","f",1,531,0,"TestA1","Label","A_Saldie",1,0,6.27476202124194
"24",12,264,"f","f",1,841,0,"A6","Label","A_Saldie",1,0,6.73459165997295
"25",11,1,"h","f",0,4346,1,"B2","NoLabel","NoName",2,0.693147180559945,8.37701116081637
"26",11,2,"h","h",1,1366,1,"B5","NoLabel","NoName",2,0.693147180559945,7.21964204013074
"27",11,3,"f","h",0,1014,1,"A3","NoLabel","NoName",2,0.693147180559945,6.92165818415113
"28",11,4,"h","h",1,1464,1,"B1","NoLabel","NoName",2,0.693147180559945,7.28892769452126
"29",11,5,"h","h",1,957,1,"B3","NoLabel","NoName",2,0.693147180559945,6.86380339145295
"30",11,6,"h","h",1,704,1,"B4","NoLabel","NoName",2,0.693147180559945,6.55677835615804
"31",11,7,"f","f",1,560,1,"A1","NoLabel","NoName",2,0.693147180559945,6.32793678372919
"32",11,8,"f","f",1,943,1,"A6","NoLabel","NoName",2,0.693147180559945,6.84906628263346
"33",11,9,"h","h",1,784,1,"B6","NoLabel","NoName",2,0.693147180559945,6.66440902035041
"34",11,10,"f","f",1,1654,1,"A2","NoLabel","NoName",2,0.693147180559945,7.41095187558364
"35",11,11,"f","f",1,2006,1,"A5","NoLabel","NoName",2,0.693147180559945,7.60389796852188
"36",11,12,"f","f",1,790,1,"A4","NoLabel","NoName",2,0.693147180559945,6.67203294546107
"37",11,13,"f","f",1,844,2,"A5","NoLabel","NoName",2,0.693147180559945,6.73815249459596
"38",11,14,"f","f",1,631,2,"A4","NoLabel","NoName",2,0.693147180559945,6.44730586254121
"39",11,15,"f","f",1,520,2,"A6","NoLabel","NoName",2,0.693147180559945,6.25382881157547
"40",11,16,"f","f",1,938,2,"A2","NoLabel","NoName",2,0.693147180559945,6.84374994900622
"41",11,17,"h","h",1,2249,2,"B2","NoLabel","NoName",2,0.693147180559945,7.71824095195932
"42",11,18,"h","h",1,848,2,"B5","NoLabel","NoName",2,0.693147180559945,6.7428806357919
"43",11,19,"h","h",1,1058,2,"B4","NoLabel","NoName",2,0.693147180559945,6.96413561241824
"44",11,20,"h","h",1,573,2,"B1","NoLabel","NoName",2,0.693147180559945,6.35088571671474
"45",11,21,"h","h",1,655,2,"B3","NoLabel","NoName",2,0.693147180559945,6.48463523563525
"46",11,22,"h","h",1,714,2,"B6","NoLabel","NoName",2,0.693147180559945,6.57088296233958
"47",11,23,"f","f",1,707,2,"A3","NoLabel","NoName",2,0.693147180559945,6.56103066589657
"48",11,24,"f","f",1,979,2,"A1","NoLabel","NoName",2,0.693147180559945,6.88653164253051
"49",11,253,"h","h",1,996,0,"B6","NoLabel","NoName",2,0.693147180559945,6.9037472575846
"50",11,254,"h","h",1,671,0,"B5","NoLabel","NoName",2,0.693147180559945,6.50876913697168
"51",11,255,"h","h",1,586,0,"B3","NoLabel","NoName",2,0.693147180559945,6.37331978957701
"52",11,256,"h","h",1,667,0,"B4","NoLabel","NoName",2,0.693147180559945,6.50279004591562
"53",11,257,"f","f",1,726,0,"A3","NoLabel","NoName",2,0.693147180559945,6.5875500148248
"54",11,258,"h","h",1,678,0,"TestB1","NoLabel","NoName",2,0.693147180559945,6.5191472879404
"55",11,259,"h","h",1,1889,0,"TestB2","NoLabel","NoName",2,0.693147180559945,7.54380286750151
"56",11,260,"f","f",1,1521,0,"A6","NoLabel","NoName",2,0.693147180559945,7.32712329225929
"57",11,261,"f","f",1,1040,0,"TestA2","NoLabel","NoName",2,0.693147180559945,6.94697599213542
"58",11,262,"f","f",1,742,0,"TestA1","NoLabel","NoName",2,0.693147180559945,6.60934924316738
"59",11,263,"f","f",1,1638,0,"A5","NoLabel","NoName",2,0.693147180559945,7.40123126441302
"60",11,264,"f","f",1,1831,0,"A4","NoLabel","NoName",2,0.693147180559945,7.51261754467451
"61",1,1,"f","h",0,2591,1,"A5","Label","A_Gatoo",2,0.693147180559945,7.85979918056211
"62",1,2,"f","h",0,2186,1,"A6","Label","A_Gatoo",2,0.693147180559945,7.68982866873648
"63",1,3,"f","f",1,1855,1,"A2","Label","A_Gatoo",2,0.693147180559945,7.52563997504154
"64",1,4,"h","h",1,1476,1,"B1","Label","A_Gatoo",2,0.693147180559945,7.29709100516042
"65",1,5,"f","f",1,1038,1,"A3","Label","A_Gatoo",2,0.693147180559945,6.94505106372583
"66",1,6,"h","h",1,828,1,"B5","Label","A_Gatoo",2,0.693147180559945,6.71901315438526
"67",1,7,"f","f",1,1311,1,"A1","Label","A_Gatoo",2,0.693147180559945,7.1785454837637
"68",1,8,"h","h",1,883,1,"B4","Label","A_Gatoo",2,0.693147180559945,6.78332520060396
"69",1,9,"h","h",1,1019,1,"B2","Label","A_Gatoo",2,0.693147180559945,6.92657703322272
"70",1,10,"f","f",1,788,1,"A4","Label","A_Gatoo",2,0.693147180559945,6.66949808985788
"71",1,11,"h","h",1,824,1,"B3","Label","A_Gatoo",2,0.693147180559945,6.71417052990947
"72",1,12,"h","h",1,990,1,"B6","Label","A_Gatoo",2,0.693147180559945,6.89770494312864
"73",1,13,"f","f",1,821,2,"A3","Label","A_Gatoo",2,0.693147180559945,6.71052310945243
"74",1,14,"f","f",1,977,2,"A5","Label","A_Gatoo",2,0.693147180559945,6.88448665204278
"75",1,15,"h","h",1,740,2,"B5","Label","A_Gatoo",2,0.693147180559945,6.60665018619822
"76",1,16,"h","h",1,674,2,"B6","Label","A_Gatoo",2,0.693147180559945,6.51323011091231
"77",1,17,"h","h",1,706,2,"B1","Label","A_Gatoo",2,0.693147180559945,6.55961523749324
"78",1,18,"h","h",1,651,2,"B4","Label","A_Gatoo",2,0.693147180559945,6.47850964220857
"79",1,19,"f","f",1,1082,2,"A1","Label","A_Gatoo",2,0.693147180559945,6.98656645940643
"80",1,20,"h","h",1,670,2,"B3","Label","A_Gatoo",2,0.693147180559945,6.50727771238501
"81",1,21,"h","h",1,1354,2,"B2","Label","A_Gatoo",2,0.693147180559945,7.21081845347222
"82",1,22,"f","f",1,663,2,"A4","Label","A_Gatoo",2,0.693147180559945,6.49677499018586
"83",1,23,"f","f",1,810,2,"A2","Label","A_Gatoo",2,0.693147180559945,6.69703424766648
"84",1,24,"f","f",1,813,2,"A6","Label","A_Gatoo",2,0.693147180559945,6.70073110954781
"85",1,253,"f","f",1,734,0,"A3","Label","A_Gatoo",2,0.693147180559945,6.59850902861452
"86",1,254,"h","h",1,1483,0,"TestB2","Label","A_Gatoo",2,0.693147180559945,7.30182234213793
"87",1,255,"f","f",1,906,0,"A4","Label","A_Gatoo",2,0.693147180559945,6.80903930604298
"88",1,256,"f","f",1,766,0,"TestA1","Label","A_Gatoo",2,0.693147180559945,6.64118216974059
"89",1,257,"f","f",1,755,0,"A5","Label","A_Gatoo",2,0.693147180559945,6.62671774924902
"90",1,258,"h","h",1,722,0,"B5","Label","A_Gatoo",2,0.693147180559945,6.58202513889283
"91",1,259,"h","h",1,1028,0,"B6","Label","A_Gatoo",2,0.693147180559945,6.93537044601511
"92",1,260,"f","f",1,870,0,"A6","Label","A_Gatoo",2,0.693147180559945,6.76849321164863
"93",1,261,"h","h",1,917,0,"TestB1","Label","A_Gatoo",2,0.693147180559945,6.82110747225646
"94",1,262,"f","f",1,1220,0,"TestA2","Label","A_Gatoo",2,0.693147180559945,7.1066061377273
"95",1,263,"h","h",1,1134,0,"B3","Label","A_Gatoo",2,0.693147180559945,7.0335064842877
"96",1,264,"h","h",1,1394,0,"B4","Label","A_Gatoo",2,0.693147180559945,7.23993259132047
"97",10,1,"h","h",1,6613,1,"B1","NoLabel","NoName",2,0.693147180559945,8.79679268767466
"98",10,2,"h","h",1,3353,1,"B6","NoLabel","NoName",2,0.693147180559945,8.11761074646623
"99",10,3,"f","f",1,1984,1,"A6","NoLabel","NoName",2,0.693147180559945,7.59287028784482
"100",10,4,"h","f",0,2368,1,"B3","NoLabel","NoName",2,0.693147180559945,7.7698009960039
"101",10,5,"h","h",1,1496,1,"B4","NoLabel","NoName",2,0.693147180559945,7.31055015853442
"102",10,6,"f","h",0,1103,1,"A5","NoLabel","NoName",2,0.693147180559945,7.0057890192535
"103",10,7,"h","f",0,2636,1,"B2","NoLabel","NoName",2,0.693147180559945,7.8770178956224
"104",10,8,"h","h",1,1562,1,"B5","NoLabel","NoName",2,0.693147180559945,7.35372233039963
"105",10,9,"f","h",0,817,1,"A4","NoLabel","NoName",2,0.693147180559945,6.70563909486
"106",10,10,"f","f",1,1723,1,"A3","NoLabel","NoName",2,0.693147180559945,7.45182223652793
"107",10,11,"f","f",1,1041,1,"A1","NoLabel","NoName",2,0.693147180559945,6.94793706861497
"108",10,12,"f","f",1,567,1,"A2","NoLabel","NoName",2,0.693147180559945,6.34035930372775
"109",10,13,"h","h",1,642,2,"B5","NoLabel","NoName",2,0.693147180559945,6.46458830368996
"110",10,14,"h","h",1,712,2,"B2","NoLabel","NoName",2,0.693147180559945,6.56807791141198
"111",10,15,"f","f",1,659,2,"A2","NoLabel","NoName",2,0.693147180559945,6.49072353450251
"112",10,16,"f","f",1,537,2,"A1","NoLabel","NoName",2,0.693147180559945,6.28599809450886
"113",10,17,"f","f",1,739,2,"A4","NoLabel","NoName",2,0.693147180559945,6.6052979209482
"114",10,18,"h","h",1,823,2,"B1","NoLabel","NoName",2,0.693147180559945,6.71295620067707
"115",10,19,"f","f",1,846,2,"A6","NoLabel","NoName",2,0.693147180559945,6.74051935960622
"116",10,20,"h","h",1,780,2,"B3","NoLabel","NoName",2,0.693147180559945,6.65929391968364
"117",10,21,"h","h",1,683,2,"B4","NoLabel","NoName",2,0.693147180559945,6.52649485957079
"118",10,22,"f","f",1,818,2,"A3","NoLabel","NoName",2,0.693147180559945,6.70686233660275
"119",10,23,"f","f",1,3682,2,"A5","NoLabel","NoName",2,0.693147180559945,8.21121136179302
"120",10,24,"h","h",1,1837,2,"B6","NoLabel","NoName",2,0.693147180559945,7.51588908521513
"121",10,253,"h","h",1,1276,0,"B3","NoLabel","NoName",2,0.693147180559945,7.15148546390474
"122",10,254,"h","h",1,612,0,"TestB1","NoLabel","NoName",2,0.693147180559945,6.41673228251233
"123",10,255,"f","f",1,638,0,"A6","NoLabel","NoName",2,0.693147180559945,6.45833828334479
"124",10,256,"h","h",1,1321,0,"B5","NoLabel","NoName",2,0.693147180559945,7.18614430452233
"125",10,257,"f","f",1,568,0,"A4","NoLabel","NoName",2,0.693147180559945,6.34212141872115
"126",10,258,"h","h",1,568,0,"B4","NoLabel","NoName",2,0.693147180559945,6.34212141872115
"127",10,259,"f","f",1,1335,0,"A5","NoLabel","NoName",2,0.693147180559945,7.19668657083435
"128",10,260,"h","h",1,1257,0,"TestB2","NoLabel","NoName",2,0.693147180559945,7.13648320859025
"129",10,261,"f","f",1,840,0,"A3","NoLabel","NoName",2,0.693147180559945,6.73340189183736
"130",10,262,"f","f",1,599,0,"TestA1","NoLabel","NoName",2,0.693147180559945,6.39526159811545
"131",10,263,"h","h",1,882,0,"B6","NoLabel","NoName",2,0.693147180559945,6.78219205600679
"132",10,264,"f","f",1,591,0,"TestA2","NoLabel","NoName",2,0.693147180559945,6.3818160174061
"133",14,1,"f","f",1,1841,1,"A5","NoLabel","NoName",1,0,7.51806418123308
"134",14,2,"h","h",1,2858,1,"B3","NoLabel","NoName",1,0,7.95787735848981
"135",14,3,"h","h",1,1003,1,"B4","NoLabel","NoName",1,0,6.91075078796194
"136",14,4,"f","f",1,770,1,"A3","NoLabel","NoName",1,0,6.64639051484773
"137",14,5,"f","f",1,689,1,"A6","NoLabel","NoName",1,0,6.53524127101366
"138",14,6,"f","f",1,1861,1,"A2","NoLabel","NoName",1,0,7.52886925664225
"139",14,7,"h","h",1,1045,1,"B1","NoLabel","NoName",1,0,6.95177216439891
"140",14,8,"f","f",1,746,1,"A1","NoLabel","NoName",1,0,6.61472560020376
"141",14,9,"f","f",1,912,1,"A4","NoLabel","NoName",1,0,6.81563999007433
"142",14,10,"h","h",1,802,1,"B6","NoLabel","NoName",1,0,6.68710860786651
"143",14,11,"h","h",1,825,1,"B5","NoLabel","NoName",1,0,6.71538338633468
"144",14,12,"h","h",1,1078,1,"B2","NoLabel","NoName",1,0,6.98286275146894
"145",14,253,"f","f",1,1804,0,"TestA2","NoLabel","NoName",1,0,7.49776170062257
"146",14,254,"f","f",1,661,0,"A6","NoLabel","NoName",1,0,6.49375383985169
"147",14,255,"h","h",1,735,0,"B6","NoLabel","NoName",1,0,6.59987049921284
"148",14,256,"h","h",1,841,0,"B3","NoLabel","NoName",1,0,6.73459165997295
"149",14,257,"f","f",1,955,0,"A5","NoLabel","NoName",1,0,6.86171134048073
"150",14,258,"f","h",0,2341,0,"TestA1","NoLabel","NoName",1,0,7.75833346749091
"151",14,259,"f","f",1,987,0,"A4","NoLabel","NoName",1,0,6.89467003943348
"152",14,260,"h","h",1,831,0,"TestB2","NoLabel","NoName",1,0,6.72262979485545
"153",14,261,"h","h",1,974,0,"B4","NoLabel","NoName",1,0,6.88141130364254
"154",14,262,"h","h",1,874,0,"B5","NoLabel","NoName",1,0,6.77308037565554
"155",14,263,"f","f",1,791,0,"A3","NoLabel","NoName",1,0,6.67329796776765
"156",14,264,"h","h",1,678,0,"TestB1","NoLabel","NoName",1,0,6.5191472879404
"157",13,1,"h","h",1,4546,1,"B6","Label","A_Gatoo",3,1.09861228866811,8.42200300441249
"158",13,2,"h","h",1,1956,1,"B4","Label","A_Gatoo",3,1.09861228866811,7.57865685059476
"159",13,3,"h","f",0,4124,1,"B3","Label","A_Gatoo",3,1.09861228866811,8.32457884513685
"160",13,4,"h","h",1,2011,1,"B1","Label","A_Gatoo",3,1.09861228866811,7.60638738977265
"161",13,5,"f","f",1,1159,1,"A6","Label","A_Gatoo",3,1.09861228866811,7.05531284333975
"162",13,6,"f","h",0,1712,1,"A2","Label","A_Gatoo",3,1.09861228866811,7.44541755670169
"163",13,7,"f","f",1,1593,1,"A1","Label","A_Gatoo",3,1.09861228866811,7.37337430991005
"164",13,8,"f","h",0,1455,1,"A4","Label","A_Gatoo",3,1.09861228866811,7.28276117960559
"165",13,9,"f","f",1,925,1,"A3","Label","A_Gatoo",3,1.09861228866811,6.82979373751242
"166",13,10,"f","h",0,1740,1,"A5","Label","A_Gatoo",3,1.09861228866811,7.46164039220858
"167",13,11,"h","f",0,1014,1,"B2","Label","A_Gatoo",3,1.09861228866811,6.92165818415113
"168",13,12,"h","h",1,791,1,"B5","Label","A_Gatoo",3,1.09861228866811,6.67329796776765
"169",13,13,"h","f",0,1066,2,"B3","Label","A_Gatoo",3,1.09861228866811,6.97166860472579
"170",13,14,"f","h",0,2684,2,"A3","Label","A_Gatoo",3,1.09861228866811,7.89506349809157
"171",13,15,"f","f",1,2353,2,"A6","Label","A_Gatoo",3,1.09861228866811,7.76344638872736
"172",13,16,"h","h",1,1359,2,"B4","Label","A_Gatoo",3,1.09861228866811,7.21450441415114
"173",13,17,"h","h",1,720,2,"B2","Label","A_Gatoo",3,1.09861228866811,6.5792512120101
"174",13,18,"f","f",1,657,2,"A4","Label","A_Gatoo",3,1.09861228866811,6.48768401848461
"175",13,19,"f","f",1,1059,2,"A5","Label","A_Gatoo",3,1.09861228866811,6.96508034560141
"176",13,20,"h","h",1,1040,2,"B6","Label","A_Gatoo",3,1.09861228866811,6.94697599213542
"177",13,21,"h","h",1,647,2,"B5","Label","A_Gatoo",3,1.09861228866811,6.4723462945009
"178",13,22,"f","f",1,975,2,"A2","Label","A_Gatoo",3,1.09861228866811,6.88243747099785
"179",13,23,"f","f",1,1301,2,"A1","Label","A_Gatoo",3,1.09861228866811,7.1708884785125
"180",13,24,"h","h",1,1359,2,"B1","Label","A_Gatoo",3,1.09861228866811,7.21450441415114
"181",13,25,"f","f",1,683,3,"A6","Label","A_Gatoo",3,1.09861228866811,6.52649485957079
"182",13,26,"h","h",1,654,3,"B3","Label","A_Gatoo",3,1.09861228866811,6.4831073514572
"183",13,27,"f","f",1,613,3,"A5","Label","A_Gatoo",3,1.09861228866811,6.41836493593621
"184",13,28,"h","h",1,841,3,"B5","Label","A_Gatoo",3,1.09861228866811,6.73459165997295
"185",13,29,"h","h",1,1109,3,"B1","Label","A_Gatoo",3,1.09861228866811,7.01121398735037
"186",13,30,"h","h",1,848,3,"B2","Label","A_Gatoo",3,1.09861228866811,6.7428806357919
"187",13,31,"f","f",1,1193,3,"A2","Label","A_Gatoo",3,1.09861228866811,7.08422642209792
"188",13,32,"h","h",1,718,3,"B4","Label","A_Gatoo",3,1.09861228866811,6.57646956904822
"189",13,33,"f","f",1,808,3,"A1","Label","A_Gatoo",3,1.09861228866811,6.69456205852109
"190",13,34,"f","f",1,1357,3,"A4","Label","A_Gatoo",3,1.09861228866811,7.21303165983487
"191",13,35,"f","f",1,659,3,"A3","Label","A_Gatoo",3,1.09861228866811,6.49072353450251
"192",13,36,"h","h",1,877,3,"B6","Label","A_Gatoo",3,1.09861228866811,6.77650699237218
"193",13,253,"h","h",1,1415,0,"TestB2","Label","A_Gatoo",3,1.09861228866811,7.25488481007734
"194",13,254,"f","f",1,675,0,"A3","Label","A_Gatoo",3,1.09861228866811,6.51471269087253
"195",13,255,"h","h",1,670,0,"B3","Label","A_Gatoo",3,1.09861228866811,6.50727771238501
"196",13,256,"f","f",1,1142,0,"A5","Label","A_Gatoo",3,1.09861228866811,7.04053639021596
"197",13,257,"h","h",1,720,0,"B5","Label","A_Gatoo",3,1.09861228866811,6.5792512120101
"198",13,258,"f","f",1,665,0,"A4","Label","A_Gatoo",3,1.09861228866811,6.49978704065585
"199",13,259,"f","f",1,908,0,"A6","Label","A_Gatoo",3,1.09861228866811,6.81124437860129
"200",13,260,"f","f",1,760,0,"TestA1","Label","A_Gatoo",3,1.09861228866811,6.63331843328038
"201",13,261,"h","h",1,750,0,"TestB1","Label","A_Gatoo",3,1.09861228866811,6.62007320653036
"202",13,262,"h","h",1,624,0,"B4","Label","A_Gatoo",3,1.09861228866811,6.43615036836943
"203",13,263,"f","f",1,2605,0,"TestA2","Label","A_Gatoo",3,1.09861228866811,7.86518795418747
"204",13,264,"h","h",1,750,0,"B6","Label","A_Gatoo",3,1.09861228866811,6.62007320653036
"205",16,1,"h","h",1,2880,1,"B5","Label","A_Saldie",2,0.693147180559945,7.96554557312999
"206",16,2,"f","f",1,2283,1,"A3","Label","A_Saldie",2,0.693147180559945,7.7332456465298
"207",16,3,"h","f",0,1970,1,"B2","Label","A_Saldie",2,0.693147180559945,7.58578882173203
"208",16,4,"f","h",0,2831,1,"A1","Label","A_Saldie",2,0.693147180559945,7.9483852851119
"209",16,5,"h","h",1,1704,1,"B1","Label","A_Saldie",2,0.693147180559945,7.44073370738926
"210",16,6,"h","f",0,2651,1,"B4","Label","A_Saldie",2,0.693147180559945,7.88269220628903
"211",16,7,"h","h",1,1241,1,"B6","Label","A_Saldie",2,0.693147180559945,7.12367278520461
"212",16,8,"f","h",0,1011,1,"A5","Label","A_Saldie",2,0.693147180559945,6.91869521902047
"213",16,9,"f","f",1,2028,1,"A4","Label","A_Saldie",2,0.693147180559945,7.61480536471107
"214",16,10,"f","f",1,2077,1,"A6","Label","A_Saldie",2,0.693147180559945,7.63867982387611
"215",16,11,"f","f",1,1498,1,"A2","Label","A_Saldie",2,0.693147180559945,7.31188616407716
"216",16,12,"h","h",1,1066,1,"B3","Label","A_Saldie",2,0.693147180559945,6.97166860472579
"217",16,13,"h","h",1,1112,2,"B2","Label","A_Saldie",2,0.693147180559945,7.01391547481053
"218",16,14,"f","f",1,746,2,"A1","Label","A_Saldie",2,0.693147180559945,6.61472560020376
"219",16,15,"f","f",1,967,2,"A2","Label","A_Saldie",2,0.693147180559945,6.87419849545329
"220",16,16,"h","h",1,708,2,"B6","Label","A_Saldie",2,0.693147180559945,6.56244409369372
"221",16,17,"h","h",1,654,2,"B4","Label","A_Saldie",2,0.693147180559945,6.4831073514572
"222",16,18,"f","f",1,1031,2,"A3","Label","A_Saldie",2,0.693147180559945,6.93828448401696
"223",16,19,"f","f",1,803,2,"A4","Label","A_Saldie",2,0.693147180559945,6.68835471394676
"224",16,20,"h","h",1,650,2,"B3","Label","A_Saldie",2,0.693147180559945,6.47697236288968
"225",16,21,"h","h",1,565,2,"B5","Label","A_Saldie",2,0.693147180559945,6.33682573114644
"226",16,22,"f","f",1,1156,2,"A6","Label","A_Saldie",2,0.693147180559945,7.05272104923232
"227",16,23,"h","h",1,642,2,"B1","Label","A_Saldie",2,0.693147180559945,6.46458830368996
"228",16,24,"f","f",1,1074,2,"A5","Label","A_Saldie",2,0.693147180559945,6.97914527506881
"229",16,253,"h","h",1,792,0,"B6","Label","A_Saldie",2,0.693147180559945,6.67456139181443
"230",16,254,"f","f",1,716,0,"A4","Label","A_Saldie",2,0.693147180559945,6.57368016696065
"231",16,255,"h","h",1,671,0,"B4","Label","A_Saldie",2,0.693147180559945,6.50876913697168
"232",16,256,"f","f",1,784,0,"TestA2","Label","A_Saldie",2,0.693147180559945,6.66440902035041
"233",16,257,"f","f",1,879,0,"A3","Label","A_Saldie",2,0.693147180559945,6.77878489768518
"234",16,258,"f","f",1,796,0,"A6","Label","A_Saldie",2,0.693147180559945,6.67959918584438
"235",16,259,"h","h",1,759,0,"TestB2","Label","A_Saldie",2,0.693147180559945,6.63200177739563
"236",16,260,"h","h",1,618,0,"TestB1","Label","A_Saldie",2,0.693147180559945,6.42648845745769
"237",16,261,"f","f",1,806,0,"TestA1","Label","A_Saldie",2,0.693147180559945,6.69208374250663
"238",16,262,"h","h",1,768,0,"B3","Label","A_Saldie",2,0.693147180559945,6.64378973314767
"239",16,263,"h","h",1,764,0,"B5","Label","A_Saldie",2,0.693147180559945,6.63856778916652
"240",16,264,"f","f",1,682,0,"A5","Label","A_Saldie",2,0.693147180559945,6.52502965784346
"241",15,1,"f","f",1,8882,1,"A2","NoLabel","NoName",2,0.693147180559945,9.09178203585205
"242",15,2,"h","f",0,8258,1,"B5","NoLabel","NoName",2,0.693147180559945,9.01893770644604
"243",15,3,"","",0,NA,1,"A1","NoLabel","NoName",2,0.693147180559945,NA
"244",15,4,"h","h",1,2520,1,"B4","NoLabel","NoName",2,0.693147180559945,7.83201418050547
"245",15,5,"h","f",0,2552,1,"B1","NoLabel","NoName",2,0.693147180559945,7.84463264446468
"246",15,6,"f","f",1,2897,1,"A4","NoLabel","NoName",2,0.693147180559945,7.97143099776935
"247",15,7,"f","f",1,2709,1,"A3","NoLabel","NoName",2,0.693147180559945,7.9043348420851
"248",15,8,"h","h",1,2124,1,"B6","NoLabel","NoName",2,0.693147180559945,7.66105638236183
"249",15,9,"h","h",1,4600,1,"B2","NoLabel","NoName",2,0.693147180559945,8.43381158247719
"250",15,10,"f","f",1,5604,1,"A6","NoLabel","NoName",2,0.693147180559945,8.6312359074569
"251",15,11,"h","h",1,2327,1,"B3","NoLabel","NoName",2,0.693147180559945,7.75233516330229
"252",15,12,"f","f",1,2363,1,"A5","NoLabel","NoName",2,0.693147180559945,7.76768727718691
"253",15,13,"h","h",1,4404,2,"B5","NoLabel","NoName",2,0.693147180559945,8.39026849784257
"254",15,14,"h","h",1,1160,2,"B6","NoLabel","NoName",2,0.693147180559945,7.05617528410041
"255",15,15,"f","f",1,3408,2,"A6","NoLabel","NoName",2,0.693147180559945,8.13388088794921
"256",15,16,"f","f",1,1015,2,"A1","NoLabel","NoName",2,0.693147180559945,6.92264389147589
"257",15,17,"h","h",1,1007,2,"B2","NoLabel","NoName",2,0.693147180559945,6.91473089271856
"258",15,18,"f","f",1,1340,2,"A4","NoLabel","NoName",2,0.693147180559945,7.20042489294496
"259",15,19,"f","f",1,1274,2,"A5","NoLabel","NoName",2,0.693147180559945,7.14991683613211
"260",15,20,"h","h",1,1636,2,"B1","NoLabel","NoName",2,0.693147180559945,7.40000951716269
"261",15,21,"h","h",1,720,2,"B3","NoLabel","NoName",2,0.693147180559945,6.5792512120101
"262",15,22,"f","f",1,810,2,"A2","NoLabel","NoName",2,0.693147180559945,6.69703424766648
"263",15,23,"f","f",1,2381,2,"A3","NoLabel","NoName",2,0.693147180559945,7.77527584648686
"264",15,24,"h","h",1,773,2,"B4","NoLabel","NoName",2,0.693147180559945,6.65027904858742
"265",15,253,"h","h",1,1064,0,"B6","NoLabel","NoName",2,0.693147180559945,6.96979066990159
"266",15,254,"f","f",1,904,0,"A5","NoLabel","NoName",2,0.693147180559945,6.80682936039218
"267",15,255,"f","f",1,1389,0,"A6","NoLabel","NoName",2,0.693147180559945,7.23633934275434
"268",15,256,"h","h",1,587,0,"B4","NoLabel","NoName",2,0.693147180559945,6.3750248198281
"269",15,257,"f","f",1,709,0,"A4","NoLabel","NoName",2,0.693147180559945,6.56385552653213
"270",15,258,"h","h",1,851,0,"B5","NoLabel","NoName",2,0.693147180559945,6.74641212857337
"271",15,259,"f","f",1,710,0,"TestA1","NoLabel","NoName",2,0.693147180559945,6.56526497003536
"272",15,260,"f","f",1,890,0,"A3","NoLabel","NoName",2,0.693147180559945,6.79122146272619
"273",15,261,"h","h",1,1623,0,"TestB2","NoLabel","NoName",2,0.693147180559945,7.39203156751459
"274",15,262,"h","h",1,659,0,"TestB1","NoLabel","NoName",2,0.693147180559945,6.49072353450251
"275",15,263,"f","f",1,714,0,"TestA2","NoLabel","NoName",2,0.693147180559945,6.57088296233958
"276",15,264,"h","h",1,646,0,"B3","NoLabel","NoName",2,0.693147180559945,6.4707995037826
"277",17,1,"f","f",1,2912,1,"A1","Label","A_Gatoo",2,0.693147180559945,7.97659540931658
"278",17,2,"h","h",1,1450,1,"B4","Label","A_Gatoo",2,0.693147180559945,7.27931883541462
"279",17,3,"h","h",1,959,1,"B6","Label","A_Gatoo",2,0.693147180559945,6.86589107488344
"280",17,4,"f","f",1,1147,1,"A3","Label","A_Gatoo",2,0.693147180559945,7.04490511712937
"281",17,5,"h","f",0,813,1,"B3","Label","A_Gatoo",2,0.693147180559945,6.70073110954781
"282",17,6,"f","h",0,954,1,"A4","Label","A_Gatoo",2,0.693147180559945,6.86066367144829
"283",17,7,"h","f",0,3274,1,"B2","Label","A_Gatoo",2,0.693147180559945,8.09376775793108
"284",17,8,"h","f",0,1433,1,"B5","Label","A_Gatoo",2,0.693147180559945,7.26752542782817
"285",17,9,"f","h",0,1507,1,"A6","Label","A_Gatoo",2,0.693147180559945,7.3178761986265
"286",17,10,"h","f",0,1843,1,"B1","Label","A_Gatoo",2,0.693147180559945,7.51914995766982
"287",17,11,"f","f",1,784,1,"A5","Label","A_Gatoo",2,0.693147180559945,6.66440902035041
"288",17,12,"f","f",1,878,1,"A2","Label","A_Gatoo",2,0.693147180559945,6.77764659363512
"289",17,13,"h","h",1,509,2,"B2","Label","A_Gatoo",2,0.693147180559945,6.23244801655052
"290",17,14,"h","h",1,661,2,"B5","Label","A_Gatoo",2,0.693147180559945,6.49375383985169
"291",17,15,"f","f",1,3232,2,"A2","Label","A_Gatoo",2,0.693147180559945,8.08085641964099
"292",17,16,"f","f",1,514,2,"A6","Label","A_Gatoo",2,0.693147180559945,6.24222326545517
"293",17,17,"h","h",1,430,2,"B1","Label","A_Gatoo",2,0.693147180559945,6.06378520868761
"294",17,18,"h","h",1,1209,2,"B6","Label","A_Gatoo",2,0.693147180559945,7.09754885061479
"295",17,19,"h","h",1,512,2,"B4","Label","A_Gatoo",2,0.693147180559945,6.23832462503951
"296",17,20,"h","h",1,653,2,"B3","Label","A_Gatoo",2,0.693147180559945,6.48157712927643
"297",17,21,"f","f",1,581,2,"A4","Label","A_Gatoo",2,0.693147180559945,6.36475075685191
"298",17,22,"f","f",1,490,2,"A3","Label","A_Gatoo",2,0.693147180559945,6.19440539110467
"299",17,23,"f","f",1,563,2,"A5","Label","A_Gatoo",2,0.693147180559945,6.33327962813969
"300",17,24,"f","f",1,459,2,"A1","Label","A_Gatoo",2,0.693147180559945,6.12905021006055
"301",17,253,"h","h",1,808,0,"B3","Label","A_Gatoo",2,0.693147180559945,6.69456205852109
"302",17,254,"f","f",1,1074,0,"A5","Label","A_Gatoo",2,0.693147180559945,6.97914527506881
"303",17,255,"h","h",1,760,0,"B4","Label","A_Gatoo",2,0.693147180559945,6.63331843328038
"304",17,256,"h","h",1,582,0,"TestB1","Label","A_Gatoo",2,0.693147180559945,6.36647044773144
"305",17,257,"f","f",1,642,0,"TestA1","Label","A_Gatoo",2,0.693147180559945,6.46458830368996
"306",17,258,"h","h",1,532,0,"TestB2","Label","A_Gatoo",2,0.693147180559945,6.27664348934164
"307",17,259,"f","f",1,504,0,"A3","Label","A_Gatoo",2,0.693147180559945,6.22257626807137
"308",17,260,"h","h",1,484,0,"B5","Label","A_Gatoo",2,0.693147180559945,6.18208490671663
"309",17,261,"f","f",1,469,0,"A6","Label","A_Gatoo",2,0.693147180559945,6.15060276844628
"310",17,262,"f","f",1,509,0,"A4","Label","A_Gatoo",2,0.693147180559945,6.23244801655052
"311",17,263,"h","h",1,691,0,"B6","Label","A_Gatoo",2,0.693147180559945,6.53813982376767
"312",17,264,"f","f",1,435,0,"TestA2","Label","A_Gatoo",2,0.693147180559945,6.07534603108868
"313",18,1,"f","f",1,3696,1,"A3","NoLabel","NoName",2,0.693147180559945,8.21500643276157
"314",18,2,"h","f",0,3022,1,"B3","NoLabel","NoName",2,0.693147180559945,8.01367414283268
"315",18,3,"h","h",1,3049,1,"B2","NoLabel","NoName",2,0.693147180559945,8.02256894698825
"316",18,4,"f","f",1,1198,1,"A4","NoLabel","NoName",2,0.693147180559945,7.08840877867539
"317",18,5,"h","h",1,2342,1,"B6","NoLabel","NoName",2,0.693147180559945,7.75876054415766
"318",18,6,"f","h",0,4400,1,"A5","NoLabel","NoName",2,0.693147180559945,8.38935981990635
"319",18,7,"f","f",1,1235,1,"A2","NoLabel","NoName",2,0.693147180559945,7.11882624906208
"320",18,8,"f","f",1,1494,1,"A1","NoLabel","NoName",2,0.693147180559945,7.30921236569276
"321",18,9,"f","h",0,1960,1,"A6","NoLabel","NoName",2,0.693147180559945,7.58069975222456
"322",18,10,"h","h",1,2220,1,"B1","NoLabel","NoName",2,0.693147180559945,7.70526247486633
"323",18,11,"h","h",1,1390,1,"B4","NoLabel","NoName",2,0.693147180559945,7.23705902612474
"324",18,12,"h","h",1,1659,1,"B5","NoLabel","NoName",2,0.693147180559945,7.41397029019044
"325",18,13,"h","h",1,1479,2,"B2","NoLabel","NoName",2,0.693147180559945,7.2991214627108
"326",18,14,"f","f",1,978,2,"A1","NoLabel","NoName",2,0.693147180559945,6.88550967003482
"327",18,15,"h","h",1,1060,2,"B3","NoLabel","NoName",2,0.693147180559945,6.96602418710611
"328",18,16,"h","h",1,1427,2,"B4","NoLabel","NoName",2,0.693147180559945,7.26332961747684
"329",18,17,"f","f",1,1629,2,"A4","NoLabel","NoName",2,0.693147180559945,7.39572160860205
"330",18,18,"f","f",1,1060,2,"A2","NoLabel","NoName",2,0.693147180559945,6.96602418710611
"331",18,19,"h","h",1,1003,2,"B5","NoLabel","NoName",2,0.693147180559945,6.91075078796194
"332",18,20,"f","f",1,2183,2,"A5","NoLabel","NoName",2,0.693147180559945,7.68845535654994
"333",18,21,"f","f",1,1464,2,"A6","NoLabel","NoName",2,0.693147180559945,7.28892769452126
"334",18,22,"h","h",1,770,2,"B6","NoLabel","NoName",2,0.693147180559945,6.64639051484773
"335",18,23,"h","h",1,800,2,"B1","NoLabel","NoName",2,0.693147180559945,6.68461172766793
"336",18,24,"f","f",1,2736,2,"A3","NoLabel","NoName",2,0.693147180559945,7.91425227874244
"337",18,253,"h","h",1,1258,0,"TestB2","NoLabel","NoName",2,0.693147180559945,7.13727843726039
"338",18,254,"f","f",1,1288,0,"A3","NoLabel","NoName",2,0.693147180559945,7.1608459066643
"339",18,255,"f","f",1,1554,0,"A6","NoLabel","NoName",2,0.693147180559945,7.34858753092759
"340",18,256,"h","h",1,1937,0,"B5","NoLabel","NoName",2,0.693147180559945,7.568895663407
"341",18,257,"f","f",1,1322,0,"A5","NoLabel","NoName",2,0.693147180559945,7.18690102041163
"342",18,258,"f","f",1,2537,0,"TestA1","NoLabel","NoName",2,0.693147180559945,7.83873755959928
"343",18,259,"h","h",1,1359,0,"B6","NoLabel","NoName",2,0.693147180559945,7.21450441415114
"344",18,260,"f","f",1,1272,0,"A4","NoLabel","NoName",2,0.693147180559945,7.14834574390007
"345",18,261,"h","h",1,1325,0,"TestB1","NoLabel","NoName",2,0.693147180559945,7.18916773842032
"346",18,262,"h","h",1,1359,0,"B3","NoLabel","NoName",2,0.693147180559945,7.21450441415114
"347",18,263,"h","h",1,1235,0,"B4","NoLabel","NoName",2,0.693147180559945,7.11882624906208
"348",18,264,"f","f",1,914,0,"TestA2","NoLabel","NoName",2,0.693147180559945,6.81783057145415
"349",19,1,"f","h",0,3663,1,"A5","NoLabel","NoName",2,0.693147180559945,8.20603776277881
"350",19,2,"h","f",0,1677,1,"B1","NoLabel","NoName",2,0.693147180559945,7.42476176182321
"351",19,3,"h","f",0,4271,1,"B6","NoLabel","NoName",2,0.693147180559945,8.35960327084147
"352",19,4,"f","f",1,1948,1,"A1","NoLabel","NoName",2,0.693147180559945,7.57455848420248
"353",19,5,"f","h",0,2103,1,"A2","NoLabel","NoName",2,0.693147180559945,7.6511201757027
"354",19,6,"f","f",1,2061,1,"A4","NoLabel","NoName",2,0.693147180559945,7.63094658089046
"355",19,7,"f","h",0,2667,1,"A3","NoLabel","NoName",2,0.693147180559945,7.88870952418201
"356",19,8,"h","h",1,1767,1,"B5","NoLabel","NoName",2,0.693147180559945,7.4770384723197
"357",19,9,"f","f",1,1262,1,"A6","NoLabel","NoName",2,0.693147180559945,7.14045304310116
"358",19,10,"h","h",1,1186,1,"B3","NoLabel","NoName",2,0.693147180559945,7.07834157955767
"359",19,11,"h","h",1,1442,1,"B2","NoLabel","NoName",2,0.693147180559945,7.27378631784489
"360",19,12,"h","h",1,881,1,"B4","NoLabel","NoName",2,0.693147180559945,6.78105762593618
"361",19,13,"f","f",1,926,2,"A4","NoLabel","NoName",2,0.693147180559945,6.83087423464618
"362",19,14,"h","h",1,942,2,"B4","NoLabel","NoName",2,0.693147180559945,6.84800527457636
"363",19,15,"h","h",1,981,2,"B3","NoLabel","NoName",2,0.693147180559945,6.88857245956536
"364",19,16,"f","f",1,701,2,"A6","NoLabel","NoName",2,0.693147180559945,6.55250788703459
"365",19,17,"h","h",1,946,2,"B6","NoLabel","NoName",2,0.693147180559945,6.85224256905188
"366",19,18,"h","h",1,1073,2,"B5","NoLabel","NoName",2,0.693147180559945,6.9782137426307
"367",19,19,"f","f",1,616,2,"A3","NoLabel","NoName",2,0.693147180559945,6.42324696353352
"368",19,20,"f","f",1,1153,2,"A1","NoLabel","NoName",2,0.693147180559945,7.05012252026906
"369",19,21,"h","h",1,722,2,"B2","NoLabel","NoName",2,0.693147180559945,6.58202513889283
"370",19,22,"f","f",1,953,2,"A5","NoLabel","NoName",2,0.693147180559945,6.8596149036542
"371",19,23,"h","h",1,913,2,"B1","NoLabel","NoName",2,0.693147180559945,6.81673588059497
"372",19,24,"f","f",1,908,2,"A2","NoLabel","NoName",2,0.693147180559945,6.81124437860129
"373",19,253,"f","f",1,836,0,"A4","NoLabel","NoName",2,0.693147180559945,6.7286286130847
"374",19,254,"f","f",1,605,0,"TestA1","NoLabel","NoName",2,0.693147180559945,6.40522845803084
"375",19,255,"f","f",1,835,0,"A3","NoLabel","NoName",2,0.693147180559945,6.72743172485086
"376",19,256,"h","h",1,673,0,"B5","NoLabel","NoName",2,0.693147180559945,6.51174532964473
"377",19,257,"h","h",1,542,0,"TestB1","NoLabel","NoName",2,0.693147180559945,6.29526600143965
"378",19,258,"f","f",1,598,0,"A6","NoLabel","NoName",2,0.693147180559945,6.39359075395063
"379",19,259,"h","h",1,635,0,"B6","NoLabel","NoName",2,0.693147180559945,6.45362499889269
"380",19,260,"f","f",1,667,0,"A5","NoLabel","NoName",2,0.693147180559945,6.50279004591562
"381",19,261,"h","h",1,1590,0,"B4","NoLabel","NoName",2,0.693147180559945,7.37148929521428
"382",19,262,"f","f",1,593,0,"TestA2","NoLabel","NoName",2,0.693147180559945,6.38519439899773
"383",19,263,"h","h",1,829,0,"TestB2","NoLabel","NoName",2,0.693147180559945,6.7202201551353
"384",19,264,"h","h",1,745,0,"B3","NoLabel","NoName",2,0.693147180559945,6.61338421837956
"385",20,1,"f","f",1,2154,1,"A5","Label","A_Saldie",3,1.09861228866811,7.67508185771633
"386",20,2,"h","f",0,991,1,"B6","Label","A_Saldie",3,1.09861228866811,6.89871453432999
"387",20,3,"f","f",1,937,1,"A1","Label","A_Saldie",3,1.09861228866811,6.84268328223842
"388",20,4,"h","f",0,894,1,"B3","Label","A_Saldie",3,1.09861228866811,6.79570577517351
"389",20,5,"h","f",0,1345,1,"B1","Label","A_Saldie",3,1.09861228866811,7.20414929203594
"390",20,6,"h","f",0,2935,1,"B4","Label","A_Saldie",3,1.09861228866811,7.9844627322622
"391",20,7,"f","h",0,1426,1,"A4","Label","A_Saldie",3,1.09861228866811,7.26262860097424
"392",20,8,"f","f",1,839,1,"A2","Label","A_Saldie",3,1.09861228866811,6.73221070646721
"393",20,9,"h","h",1,1490,1,"B2","Label","A_Saldie",3,1.09861228866811,7.30653139893951
"394",20,10,"h","h",1,759,1,"B5","Label","A_Saldie",3,1.09861228866811,6.63200177739563
"395",20,11,"f","f",1,735,1,"A3","Label","A_Saldie",3,1.09861228866811,6.59987049921284
"396",20,12,"f","f",1,1848,1,"A6","Label","A_Saldie",3,1.09861228866811,7.52185925220163
"397",20,13,"f","f",1,1047,2,"A2","Label","A_Saldie",3,1.09861228866811,6.95368421087054
"398",20,14,"h","h",1,811,2,"B5","Label","A_Saldie",3,1.09861228866811,6.69826805411541
"399",20,15,"h","h",1,1050,2,"B2","Label","A_Saldie",3,1.09861228866811,6.95654544315157
"400",20,16,"f","h",0,1259,2,"A4","Label","A_Saldie",3,1.09861228866811,7.13807303404435
"401",20,17,"h","h",1,795,2,"B4","Label","A_Saldie",3,1.09861228866811,6.67834211465433
"402",20,18,"f","f",1,672,2,"A6","Label","A_Saldie",3,1.09861228866811,6.51025834052315
"403",20,19,"f","f",1,2014,2,"A3","Label","A_Saldie",3,1.09861228866811,7.60787807327851
"404",20,20,"h","h",1,559,2,"B3","Label","A_Saldie",3,1.09861228866811,6.3261494731551
"405",20,21,"f","f",1,1105,2,"A5","Label","A_Saldie",3,1.09861228866811,7.00760061395185
"406",20,22,"h","h",1,687,2,"B6","Label","A_Saldie",3,1.09861228866811,6.53233429222235
"407",20,23,"f","f",1,560,2,"A1","Label","A_Saldie",3,1.09861228866811,6.32793678372919
"408",20,24,"h","h",1,720,2,"B1","Label","A_Saldie",3,1.09861228866811,6.5792512120101
"409",20,25,"f","f",1,967,3,"A4","Label","A_Saldie",3,1.09861228866811,6.87419849545329
"410",20,26,"f","f",1,852,3,"A6","Label","A_Saldie",3,1.09861228866811,6.74758652682932
"411",20,27,"f","f",1,640,3,"A2","Label","A_Saldie",3,1.09861228866811,6.46146817635372
"412",20,28,"f","f",1,564,3,"A3","Label","A_Saldie",3,1.09861228866811,6.33505425149806
"413",20,29,"h","h",1,535,3,"B4","Label","A_Saldie",3,1.09861228866811,6.28226674689601
"414",20,30,"f","f",1,613,3,"A1","Label","A_Saldie",3,1.09861228866811,6.41836493593621
"415",20,31,"h","h",1,1707,3,"B1","Label","A_Saldie",3,1.09861228866811,7.44249272279444
"416",20,32,"f","f",1,2243,3,"A5","Label","A_Saldie",3,1.09861228866811,7.71556953452021
"417",20,33,"h","h",1,822,3,"B2","Label","A_Saldie",3,1.09861228866811,6.71174039505618
"418",20,34,"h","h",1,874,3,"B6","Label","A_Saldie",3,1.09861228866811,6.77308037565554
"419",20,35,"h","h",1,1151,3,"B5","Label","A_Saldie",3,1.09861228866811,7.04838640872188
"420",20,36,"h","h",1,590,3,"B3","Label","A_Saldie",3,1.09861228866811,6.38012253689976
"421",20,253,"h","h",1,874,0,"B3","Label","A_Saldie",3,1.09861228866811,6.77308037565554
"422",20,254,"f","f",1,509,0,"A6","Label","A_Saldie",3,1.09861228866811,6.23244801655052
"423",20,255,"h","h",1,577,0,"B6","Label","A_Saldie",3,1.09861228866811,6.3578422665081
"424",20,256,"f","f",1,447,0,"TestA1","Label","A_Saldie",3,1.09861228866811,6.10255859461357
"425",20,257,"h","h",1,428,0,"TestB2","Label","A_Saldie",3,1.09861228866811,6.0591231955818
"426",20,258,"h","h",1,404,0,"TestB1","Label","A_Saldie",3,1.09861228866811,6.00141487796115
"427",20,259,"h","h",1,473,0,"B5","Label","A_Saldie",3,1.09861228866811,6.15909538849193
"428",20,260,"h","h",1,476,0,"B4","Label","A_Saldie",3,1.09861228866811,6.16541785423142
"429",20,261,"f","f",1,402,0,"A3","Label","A_Saldie",3,1.09861228866811,5.99645208861902
"430",20,262,"f","f",1,458,0,"A5","Label","A_Saldie",3,1.09861228866811,6.12686918411419
"431",20,263,"f","f",1,439,0,"A4","Label","A_Saldie",3,1.09861228866811,6.08449941307517
"432",20,264,"f","f",1,360,0,"TestA2","Label","A_Saldie",3,1.09861228866811,5.88610403145016
"433",22,1,"f","f",1,1137,1,"A4","NoLabel","NoName",2,0.693147180559945,7.03614849375054
"434",22,2,"f","f",1,979,1,"A2","NoLabel","NoName",2,0.693147180559945,6.88653164253051
"435",22,3,"f","f",1,1268,1,"A3","NoLabel","NoName",2,0.693147180559945,7.14519613499717
"436",22,4,"h","h",1,1763,1,"B6","NoLabel","NoName",2,0.693147180559945,7.47477218239787
"437",22,5,"h","f",0,751,1,"B2","NoLabel","NoName",2,0.693147180559945,6.62140565176413
"438",22,6,"f","f",1,977,1,"A6","NoLabel","NoName",2,0.693147180559945,6.88448665204278
"439",22,7,"h","h",1,1013,1,"B5","NoLabel","NoName",2,0.693147180559945,6.92067150424868
"440",22,8,"h","h",1,692,1,"B1","NoLabel","NoName",2,0.693147180559945,6.53958595561767
"441",22,9,"f","f",1,775,1,"A5","NoLabel","NoName",2,0.693147180559945,6.65286302935335
"442",22,10,"f","f",1,698,1,"A1","NoLabel","NoName",2,0.693147180559945,6.54821910276237
"443",22,11,"h","h",1,699,1,"B3","NoLabel","NoName",2,0.693147180559945,6.54965074223381
"444",22,12,"h","f",0,668,1,"B4","NoLabel","NoName",2,0.693147180559945,6.50428817353665
"445",22,13,"f","f",1,878,2,"A2","NoLabel","NoName",2,0.693147180559945,6.77764659363512
"446",22,14,"h","h",1,646,2,"B6","NoLabel","NoName",2,0.693147180559945,6.4707995037826
"447",22,15,"f","f",1,1104,2,"A6","NoLabel","NoName",2,0.693147180559945,7.00669522683704
"448",22,16,"h","h",1,875,2,"B4","NoLabel","NoName",2,0.693147180559945,6.77422388635761
"449",22,17,"h","h",1,627,2,"B1","NoLabel","NoName",2,0.693147180559945,6.44094654063292
"450",22,18,"f","f",1,485,2,"A4","NoLabel","NoName",2,0.693147180559945,6.18414889093748
"451",22,19,"h","h",1,565,2,"B2","NoLabel","NoName",2,0.693147180559945,6.33682573114644
"452",22,20,"f","f",1,580,2,"A3","NoLabel","NoName",2,0.693147180559945,6.36302810354046
"453",22,21,"h","h",1,736,2,"B5","NoLabel","NoName",2,0.693147180559945,6.60123011872888
"454",22,22,"f","f",1,440,2,"A1","NoLabel","NoName",2,0.693147180559945,6.08677472691231
"455",22,23,"h","h",1,532,2,"B3","NoLabel","NoName",2,0.693147180559945,6.27664348934164
"456",22,24,"f","f",1,469,2,"A5","NoLabel","NoName",2,0.693147180559945,6.15060276844628
"457",22,253,"f","f",1,877,0,"A4","NoLabel","NoName",2,0.693147180559945,6.77650699237218
"458",22,254,"h","h",1,498,0,"B3","NoLabel","NoName",2,0.693147180559945,6.21060007702465
"459",22,255,"f","f",1,491,0,"TestA2","NoLabel","NoName",2,0.693147180559945,6.19644412779452
"460",22,256,"f","f",1,563,0,"A6","NoLabel","NoName",2,0.693147180559945,6.33327962813969
"461",22,257,"h","h",1,450,0,"TestB2","NoLabel","NoName",2,0.693147180559945,6.10924758276437
"462",22,258,"h","h",1,665,0,"B4","NoLabel","NoName",2,0.693147180559945,6.49978704065585
"463",22,259,"h","h",1,421,0,"B5","NoLabel","NoName",2,0.693147180559945,6.04263283368238
"464",22,260,"h","h",1,437,0,"TestB1","NoLabel","NoName",2,0.693147180559945,6.07993319509559
"465",22,261,"f","f",1,476,0,"A5","NoLabel","NoName",2,0.693147180559945,6.16541785423142
"466",22,262,"f","f",1,696,0,"TestA1","NoLabel","NoName",2,0.693147180559945,6.54534966033442
"467",22,263,"f","f",1,511,0,"A3","NoLabel","NoName",2,0.693147180559945,6.2363695902037
"468",22,264,"h","h",1,544,0,"B6","NoLabel","NoName",2,0.693147180559945,6.29894924685594
"469",21,1,"f","f",1,1438,1,"A1","Label","A_Gatoo",2,0.693147180559945,7.27100853828099
"470",21,2,"h","f",0,1622,1,"B2","Label","A_Gatoo",2,0.693147180559945,7.39141523467536
"471",21,3,"f","f",1,1402,1,"A2","Label","A_Gatoo",2,0.693147180559945,7.24565506759454
"472",21,4,"h","h",1,1279,1,"B6","Label","A_Gatoo",2,0.693147180559945,7.15383380157884
"473",21,5,"f","f",1,2136,1,"A3","Label","A_Gatoo",2,0.693147180559945,7.66669020008009
"474",21,6,"f","h",0,1454,1,"A6","Label","A_Gatoo",2,0.693147180559945,7.28207365809346
"475",21,7,"f","h",0,1572,1,"A5","Label","A_Gatoo",2,0.693147180559945,7.36010397298915
"476",21,8,"h","f",0,2443,1,"B4","Label","A_Gatoo",2,0.693147180559945,7.80098207125774
"477",21,9,"h","f",0,1779,1,"B1","Label","A_Gatoo",2,0.693147180559945,7.48380668766583
"478",21,10,"h","h",1,2292,1,"B3","Label","A_Gatoo",2,0.693147180559945,7.73718007783463
"479",21,11,"h","h",1,1323,1,"B5","Label","A_Gatoo",2,0.693147180559945,7.18765716411496
"480",21,12,"f","f",1,1039,1,"A4","Label","A_Gatoo",2,0.693147180559945,6.94601399109923
"481",21,13,"f","f",1,1897,2,"A5","Label","A_Gatoo",2,0.693147180559945,7.54802896993501
"482",21,14,"h","h",1,1276,2,"B3","Label","A_Gatoo",2,0.693147180559945,7.15148546390474
"483",21,15,"h","h",1,1286,2,"B4","Label","A_Gatoo",2,0.693147180559945,7.15929190479756
"484",21,16,"h","h",1,1065,2,"B1","Label","A_Gatoo",2,0.693147180559945,6.97073007814353
"485",21,17,"h","h",1,1171,2,"B2","Label","A_Gatoo",2,0.693147180559945,7.06561336359772
"486",21,18,"h","h",1,1364,2,"B6","Label","A_Gatoo",2,0.693147180559945,7.21817683840341
"487",21,19,"f","f",1,1077,2,"A4","Label","A_Gatoo",2,0.693147180559945,6.98193467715639
"488",21,20,"f","f",1,1516,2,"A2","Label","A_Gatoo",2,0.693147180559945,7.32383056620232
"489",21,21,"f","f",1,2068,2,"A6","Label","A_Gatoo",2,0.693147180559945,7.63433723562832
"490",21,22,"f","f",1,1003,2,"A1","Label","A_Gatoo",2,0.693147180559945,6.91075078796194
"491",21,23,"h","h",1,956,2,"B5","Label","A_Gatoo",2,0.693147180559945,6.8627579130514
"492",21,24,"f","f",1,806,2,"A3","Label","A_Gatoo",2,0.693147180559945,6.69208374250663
"493",21,253,"f","f",1,1026,0,"A5","Label","A_Gatoo",2,0.693147180559945,6.93342302573071
"494",21,254,"h","h",1,1014,0,"B5","Label","A_Gatoo",2,0.693147180559945,6.92165818415113
"495",21,255,"f","f",1,963,0,"TestA1","Label","A_Gatoo",2,0.693147180559945,6.87005341179813
"496",21,256,"h","h",1,979,0,"TestB2","Label","A_Gatoo",2,0.693147180559945,6.88653164253051
"497",21,257,"f","f",1,862,0,"TestA2","Label","A_Gatoo",2,0.693147180559945,6.75925527066369
"498",21,258,"f","f",1,687,0,"A4","Label","A_Gatoo",2,0.693147180559945,6.53233429222235
"499",21,259,"f","f",1,712,0,"A3","Label","A_Gatoo",2,0.693147180559945,6.56807791141198
"500",21,260,"h","h",1,741,0,"B3","Label","A_Gatoo",2,0.693147180559945,6.60800062529609
"501",21,261,"h","h",1,1007,0,"TestB1","Label","A_Gatoo",2,0.693147180559945,6.91473089271856
"502",21,262,"h","h",1,819,0,"B6","Label","A_Gatoo",2,0.693147180559945,6.70808408385307
"503",21,263,"h","h",1,694,0,"B4","Label","A_Gatoo",2,0.693147180559945,6.5424719605068
"504",21,264,"f","f",1,834,0,"A6","Label","A_Gatoo",2,0.693147180559945,6.72623340235875
"505",24,1,"h","f",0,3704,1,"B3","Label","A_Saldie",2,0.693147180559945,8.21716859576607
"506",24,2,"h","h",1,1126,1,"B1","Label","A_Saldie",2,0.693147180559945,7.02642680869964
"507",24,3,"f","f",1,1459,1,"A1","Label","A_Saldie",2,0.693147180559945,7.28550654852279
"508",24,4,"f","f",1,1349,1,"A3","Label","A_Saldie",2,0.693147180559945,7.20711885620776
"509",24,5,"h","h",1,850,1,"B4","Label","A_Saldie",2,0.693147180559945,6.74523634948436
"510",24,6,"f","f",1,780,1,"A5","Label","A_Saldie",2,0.693147180559945,6.65929391968364
"511",24,7,"h","h",1,1564,1,"B6","Label","A_Saldie",2,0.693147180559945,7.35500192110526
"512",24,8,"f","f",1,523,1,"A2","Label","A_Saldie",2,0.693147180559945,6.25958146406492
"513",24,9,"f","f",1,1122,1,"A6","Label","A_Saldie",2,0.693147180559945,7.02286808608264
"514",24,10,"h","h",1,744,1,"B5","Label","A_Saldie",2,0.693147180559945,6.61204103483309
"515",24,11,"f","f",1,862,1,"A4","Label","A_Saldie",2,0.693147180559945,6.75925527066369
"516",24,12,"h","h",1,968,1,"B2","Label","A_Saldie",2,0.693147180559945,6.87523208727658
"517",24,13,"h","h",1,940,2,"B3","Label","A_Saldie",2,0.693147180559945,6.84587987526405
"518",24,14,"f","f",1,544,2,"A2","Label","A_Saldie",2,0.693147180559945,6.29894924685594
"519",24,15,"f","f",1,1055,2,"A6","Label","A_Saldie",2,0.693147180559945,6.96129604591017
"520",24,16,"h","h",1,714,2,"B1","Label","A_Saldie",2,0.693147180559945,6.57088296233958
"521",24,17,"h","h",1,815,2,"B4","Label","A_Saldie",2,0.693147180559945,6.70318811324086
"522",24,18,"f","f",1,701,2,"A4","Label","A_Saldie",2,0.693147180559945,6.55250788703459
"523",24,19,"f","f",1,721,2,"A1","Label","A_Saldie",2,0.693147180559945,6.58063913728495
"524",24,20,"h","h",1,801,2,"B5","Label","A_Saldie",2,0.693147180559945,6.68586094706836
"525",24,21,"h","h",1,935,2,"B2","Label","A_Saldie",2,0.693147180559945,6.84054652928869
"526",24,22,"f","f",1,594,2,"A5","Label","A_Saldie",2,0.693147180559945,6.38687931936265
"527",24,23,"f","f",1,922,2,"A3","Label","A_Saldie",2,0.693147180559945,6.82654522355659
"528",24,24,"h","h",1,692,2,"B6","Label","A_Saldie",2,0.693147180559945,6.53958595561767
"529",24,253,"f","f",1,874,0,"A5","Label","A_Saldie",2,0.693147180559945,6.77308037565554
"530",24,254,"h","h",1,1115,0,"TestB2","Label","A_Saldie",2,0.693147180559945,7.01660968389422
"531",24,255,"h","h",1,601,0,"B4","Label","A_Saldie",2,0.693147180559945,6.39859493453521
"532",24,256,"f","f",1,612,0,"A6","Label","A_Saldie",2,0.693147180559945,6.41673228251233
"533",24,257,"h","h",1,653,0,"B3","Label","A_Saldie",2,0.693147180559945,6.48157712927643
"534",24,258,"f","f",1,558,0,"A3","Label","A_Saldie",2,0.693147180559945,6.32435896238131
"535",24,259,"h","h",1,819,0,"B6","Label","A_Saldie",2,0.693147180559945,6.70808408385307
"536",24,260,"f","f",1,832,0,"A4","Label","A_Saldie",2,0.693147180559945,6.72383244082121
"537",24,261,"h","h",1,905,0,"B5","Label","A_Saldie",2,0.693147180559945,6.80793494369993
"538",24,262,"f","f",1,826,0,"TestA1","Label","A_Saldie",2,0.693147180559945,6.71659477352098
"539",24,263,"f","f",1,724,0,"TestA2","Label","A_Saldie",2,0.693147180559945,6.58479139238572
"540",24,264,"h","h",1,622,0,"TestB1","Label","A_Saldie",2,0.693147180559945,6.43294009273918
"541",23,1,"f","f",1,1808,1,"A2","NoLabel","NoName",3,1.09861228866811,7.49997654095212
"542",23,2,"f","f",1,1110,1,"A6","NoLabel","NoName",3,1.09861228866811,7.01211529430638
"543",23,3,"h","f",0,992,1,"B1","NoLabel","NoName",3,1.09861228866811,6.89972310728487
"544",23,4,"h","h",1,985,1,"B6","NoLabel","NoName",3,1.09861228866811,6.89264164117209
"545",23,5,"h","h",1,786,1,"B4","NoLabel","NoName",3,1.09861228866811,6.66695679242921
"546",23,6,"h","f",0,1013,1,"B5","NoLabel","NoName",3,1.09861228866811,6.92067150424868
"547",23,7,"f","f",1,1534,1,"A5","NoLabel","NoName",3,1.09861228866811,7.3356339819272
"548",23,8,"f","f",1,1031,1,"A1","NoLabel","NoName",3,1.09861228866811,6.93828448401696
"549",23,9,"f","f",1,1129,1,"A3","NoLabel","NoName",3,1.09861228866811,7.02908756414966
"550",23,10,"h","h",1,725,1,"B2","NoLabel","NoName",3,1.09861228866811,6.58617165485467
"551",23,11,"h","h",1,941,1,"B3","NoLabel","NoName",3,1.09861228866811,6.84694313958538
"552",23,12,"f","f",1,809,1,"A4","NoLabel","NoName",3,1.09861228866811,6.69579891705849
"553",23,13,"h","h",1,694,2,"B6","NoLabel","NoName",3,1.09861228866811,6.5424719605068
"554",23,14,"f","f",1,768,2,"A2","NoLabel","NoName",3,1.09861228866811,6.64378973314767
"555",23,15,"f","f",1,819,2,"A5","NoLabel","NoName",3,1.09861228866811,6.70808408385307
"556",23,16,"h","h",1,534,2,"B4","NoLabel","NoName",3,1.09861228866811,6.2803958389602
"557",23,17,"h","h",1,559,2,"B1","NoLabel","NoName",3,1.09861228866811,6.3261494731551
"558",23,18,"f","h",0,960,2,"A6","NoLabel","NoName",3,1.09861228866811,6.86693328446188
"559",23,19,"h","h",1,623,2,"B3","NoLabel","NoName",3,1.09861228866811,6.43454651878745
"560",23,20,"h","h",1,686,2,"B2","NoLabel","NoName",3,1.09861228866811,6.53087762772588
"561",23,21,"f","f",1,491,2,"A4","NoLabel","NoName",3,1.09861228866811,6.19644412779452
"562",23,22,"h","h",1,759,2,"B5","NoLabel","NoName",3,1.09861228866811,6.63200177739563
"563",23,23,"f","f",1,750,2,"A3","NoLabel","NoName",3,1.09861228866811,6.62007320653036
"564",23,24,"f","f",1,641,2,"A1","NoLabel","NoName",3,1.09861228866811,6.46302945692067
"565",23,25,"h","h",1,533,3,"B1","NoLabel","NoName",3,1.09861228866811,6.27852142416584
"566",23,26,"f","f",1,637,3,"A4","NoLabel","NoName",3,1.09861228866811,6.45676965557216
"567",23,27,"f","f",1,778,3,"A6","NoLabel","NoName",3,1.09861228866811,6.65672652417839
"568",23,28,"h","h",1,503,3,"B2","NoLabel","NoName",3,1.09861228866811,6.22059017009974
"569",23,29,"h","h",1,524,3,"B6","NoLabel","NoName",3,1.09861228866811,6.26149168432104
"570",23,30,"f","f",1,566,3,"A5","NoLabel","NoName",3,1.09861228866811,6.33859407820318
"571",23,31,"f","f",1,736,3,"A2","NoLabel","NoName",3,1.09861228866811,6.60123011872888
"572",23,32,"f","f",1,665,3,"A3","NoLabel","NoName",3,1.09861228866811,6.49978704065585
"573",23,33,"h","h",1,580,3,"B4","NoLabel","NoName",3,1.09861228866811,6.36302810354046
"574",23,34,"f","f",1,624,3,"A1","NoLabel","NoName",3,1.09861228866811,6.43615036836943
"575",23,35,"h","h",1,713,3,"B5","NoLabel","NoName",3,1.09861228866811,6.5694814204143
"576",23,36,"h","h",1,544,3,"B3","NoLabel","NoName",3,1.09861228866811,6.29894924685594
"577",23,253,"h","h",1,642,0,"TestB1","NoLabel","NoName",3,1.09861228866811,6.46458830368996
"578",23,254,"f","f",1,641,0,"A4","NoLabel","NoName",3,1.09861228866811,6.46302945692067
"579",23,255,"f","f",1,756,0,"A3","NoLabel","NoName",3,1.09861228866811,6.62804137617953
"580",23,256,"h","h",1,657,0,"B6","NoLabel","NoName",3,1.09861228866811,6.48768401848461
"581",23,257,"h","h",1,677,0,"B4","NoLabel","NoName",3,1.09861228866811,6.51767127291227
"582",23,258,"h","h",1,873,0,"TestB2","NoLabel","NoName",3,1.09861228866811,6.7719355558396
"583",23,259,"f","f",1,1028,0,"A5","NoLabel","NoName",3,1.09861228866811,6.93537044601511
"584",23,260,"f","f",1,730,0,"TestA2","NoLabel","NoName",3,1.09861228866811,6.59304453414244
"585",23,261,"h","h",1,860,0,"B3","NoLabel","NoName",3,1.09861228866811,6.75693238924755
"586",23,262,"f","f",1,684,0,"A6","NoLabel","NoName",3,1.09861228866811,6.52795791762255
"587",23,263,"f","f",1,949,0,"TestA1","NoLabel","NoName",3,1.09861228866811,6.85540879860993
"588",23,264,"h","h",1,952,0,"B5","NoLabel","NoName",3,1.09861228866811,6.85856503479136
"589",26,1,"f","f",1,3473,1,"A4","NoLabel","NoName",2,0.693147180559945,8.15277405274407
"590",26,2,"f","f",1,2783,1,"A5","NoLabel","NoName",2,0.693147180559945,7.93128476152589
"591",26,3,"h","f",0,1372,1,"B6","NoLabel","NoName",2,0.693147180559945,7.22402480828583
"592",26,4,"f","h",0,1179,1,"A3","NoLabel","NoName",2,0.693147180559945,7.07242190053737
"593",26,5,"f","h",0,1449,1,"A1","NoLabel","NoName",2,0.693147180559945,7.27862894232068
"594",26,6,"f","h",0,2406,1,"A2","NoLabel","NoName",2,0.693147180559945,7.78572089653462
"595",26,7,"h","f",0,775,1,"B5","NoLabel","NoName",2,0.693147180559945,6.65286302935335
"596",26,8,"f","f",1,1243,1,"A6","NoLabel","NoName",2,0.693147180559945,7.12528309151071
"597",26,9,"h","h",1,1392,1,"B3","NoLabel","NoName",2,0.693147180559945,7.23849684089437
"598",26,10,"h","h",1,4365,1,"B1","NoLabel","NoName",2,0.693147180559945,8.3813734682737
"599",26,11,"h","h",1,1579,1,"B4","NoLabel","NoName",2,0.693147180559945,7.36454701425564
"600",26,12,"h","h",1,1058,1,"B2","NoLabel","NoName",2,0.693147180559945,6.96413561241824
"601",26,13,"f","f",1,830,2,"A5","NoLabel","NoName",2,0.693147180559945,6.72142570079064
"602",26,14,"h","h",1,785,2,"B4","NoLabel","NoName",2,0.693147180559945,6.66568371778241
"603",26,15,"f","f",1,906,2,"A3","NoLabel","NoName",2,0.693147180559945,6.80903930604298
"604",26,16,"f","f",1,1186,2,"A1","NoLabel","NoName",2,0.693147180559945,7.07834157955767
"605",26,17,"f","f",1,978,2,"A2","NoLabel","NoName",2,0.693147180559945,6.88550967003482
"606",26,18,"h","h",1,634,2,"B2","NoLabel","NoName",2,0.693147180559945,6.45204895443723
"607",26,19,"h","h",1,630,2,"B3","NoLabel","NoName",2,0.693147180559945,6.44571981938558
"608",26,20,"f","f",1,609,2,"A6","NoLabel","NoName",2,0.693147180559945,6.4118182677099
"609",26,21,"f","f",1,661,2,"A4","NoLabel","NoName",2,0.693147180559945,6.49375383985169
"610",26,22,"h","h",1,502,2,"B1","NoLabel","NoName",2,0.693147180559945,6.21860011969173
"611",26,23,"h","h",1,571,2,"B5","NoLabel","NoName",2,0.693147180559945,6.34738920965601
"612",26,24,"h","h",1,556,2,"B6","NoLabel","NoName",2,0.693147180559945,6.32076829425058
"613",26,253,"f","f",1,870,0,"A3","NoLabel","NoName",2,0.693147180559945,6.76849321164863
"614",26,254,"h","h",1,664,0,"B6","NoLabel","NoName",2,0.693147180559945,6.49828214947643
"615",26,255,"f","f",1,497,0,"A4","NoLabel","NoName",2,0.693147180559945,6.20859002609663
"616",26,256,"h","h",1,493,0,"B3","NoLabel","NoName",2,0.693147180559945,6.20050917404269
"617",26,257,"f","f",1,390,0,"TestA2","NoLabel","NoName",2,0.693147180559945,5.96614673912369
"618",26,258,"h","h",1,441,0,"B5","NoLabel","NoName",2,0.693147180559945,6.08904487544685
"619",26,259,"f","f",1,541,0,"A6","NoLabel","NoName",2,0.693147180559945,6.29341927884648
"620",26,260,"h","h",1,564,0,"TestB2","NoLabel","NoName",2,0.693147180559945,6.33505425149806
"621",26,261,"f","f",1,415,0,"TestA1","NoLabel","NoName",2,0.693147180559945,6.0282785202307
"622",26,262,"h","h",1,666,0,"TestB1","NoLabel","NoName",2,0.693147180559945,6.50128967054039
"623",26,263,"f","f",1,499,0,"A5","NoLabel","NoName",2,0.693147180559945,6.21260609575152
"624",26,264,"h","h",1,495,0,"B4","NoLabel","NoName",2,0.693147180559945,6.20455776256869
"625",28,1,"h","f",0,1399,1,"B5","Label","A_Saldie",2,0.693147180559945,7.24351297466548
"626",28,2,"f","h",0,2431,1,"A2","Label","A_Saldie",2,0.693147180559945,7.79605797431612
"627",28,3,"f","h",0,2082,1,"A6","Label","A_Saldie",2,0.693147180559945,7.64108424917491
"628",28,4,"h","h",1,3035,1,"B2","Label","A_Saldie",2,0.693147180559945,8.0179667034936
"629",28,5,"h","f",0,1409,1,"B1","Label","A_Saldie",2,0.693147180559945,7.25063551189868
"630",28,6,"h","h",1,4354,1,"B3","Label","A_Saldie",2,0.693147180559945,8.37885024179449
"631",28,7,"h","h",1,1909,1,"B4","Label","A_Saldie",2,0.693147180559945,7.55433482372575
"632",28,8,"h","h",1,2716,1,"B6","Label","A_Saldie",2,0.693147180559945,7.90691548867859
"633",28,9,"f","f",1,957,1,"A1","Label","A_Saldie",2,0.693147180559945,6.86380339145295
"634",28,10,"f","f",1,975,1,"A5","Label","A_Saldie",2,0.693147180559945,6.88243747099785
"635",28,11,"f","f",1,728,1,"A3","Label","A_Saldie",2,0.693147180559945,6.59030104819669
"636",28,12,"f","f",1,688,1,"A4","Label","A_Saldie",2,0.693147180559945,6.53378883793334
"637",28,13,"h","h",1,714,2,"B6","Label","A_Saldie",2,0.693147180559945,6.57088296233958
"638",28,14,"h","h",1,1382,2,"B3","Label","A_Saldie",2,0.693147180559945,7.23128700432762
"639",28,15,"h","h",1,652,2,"B1","Label","A_Saldie",2,0.693147180559945,6.48004456192665
"640",28,16,"f","f",1,634,2,"A2","Label","A_Saldie",2,0.693147180559945,6.45204895443723
"641",28,17,"f","f",1,750,2,"A4","Label","A_Saldie",2,0.693147180559945,6.62007320653036
"642",28,18,"f","f",1,1385,2,"A5","Label","A_Saldie",2,0.693147180559945,7.23345541862144
"643",28,19,"h","h",1,462,2,"B2","Label","A_Saldie",2,0.693147180559945,6.13556489108174
"644",28,20,"h","h",1,623,2,"B5","Label","A_Saldie",2,0.693147180559945,6.43454651878745
"645",28,21,"f","f",1,662,2,"A6","Label","A_Saldie",2,0.693147180559945,6.49526555593701
"646",28,22,"h","h",1,743,2,"B4","Label","A_Saldie",2,0.693147180559945,6.61069604471776
"647",28,23,"f","f",1,494,2,"A1","Label","A_Saldie",2,0.693147180559945,6.20253551718792
"648",28,24,"f","f",1,622,2,"A3","Label","A_Saldie",2,0.693147180559945,6.43294009273918
"649",28,253,"f","f",1,1408,0,"A4","Label","A_Saldie",2,0.693147180559945,7.24992553671799
"650",28,254,"f","f",1,541,0,"A3","Label","A_Saldie",2,0.693147180559945,6.29341927884648
"651",28,255,"h","h",1,499,0,"B3","Label","A_Saldie",2,0.693147180559945,6.21260609575152
"652",28,256,"h","h",1,545,0,"B4","Label","A_Saldie",2,0.693147180559945,6.30078579466324
"653",28,257,"h","h",1,525,0,"TestB1","Label","A_Saldie",2,0.693147180559945,6.26339826259162
"654",28,258,"h","h",1,423,0,"B6","Label","A_Saldie",2,0.693147180559945,6.04737217904628
"655",28,259,"f","f",1,552,0,"TestA1","Label","A_Saldie",2,0.693147180559945,6.31354804627709
"656",28,260,"h","h",1,492,0,"B5","Label","A_Saldie",2,0.693147180559945,6.19847871649231
"657",28,261,"f","f",1,654,0,"TestA2","Label","A_Saldie",2,0.693147180559945,6.4831073514572
"658",28,262,"f","f",1,786,0,"A5","Label","A_Saldie",2,0.693147180559945,6.66695679242921
"659",28,263,"h","h",1,944,0,"TestB2","Label","A_Saldie",2,0.693147180559945,6.8501261661455
"660",28,264,"f","f",1,611,0,"A6","Label","A_Saldie",2,0.693147180559945,6.4150969591716
"661",25,1,"h","f",0,818,1,"B2","Label","A_Gatoo",6,1.79175946922805,6.70686233660275
"662",25,2,"h","h",1,958,1,"B5","Label","A_Gatoo",6,1.79175946922805,6.86484777797086
"663",25,3,"f","h",0,541,1,"A6","Label","A_Gatoo",6,1.79175946922805,6.29341927884648
"664",25,4,"f","f",1,800,1,"A1","Label","A_Gatoo",6,1.79175946922805,6.68461172766793
"665",25,5,"f","f",1,660,1,"A3","Label","A_Gatoo",6,1.79175946922805,6.49223983502047
"666",25,6,"f","f",1,785,1,"A2","Label","A_Gatoo",6,1.79175946922805,6.66568371778241
"667",25,7,"h","h",1,940,1,"B1","Label","A_Gatoo",6,1.79175946922805,6.84587987526405
"668",25,8,"h","f",0,579,1,"B3","Label","A_Gatoo",6,1.79175946922805,6.361302477573
"669",25,9,"h","f",0,958,1,"B6","Label","A_Gatoo",6,1.79175946922805,6.86484777797086
"670",25,10,"f","h",0,1235,1,"A4","Label","A_Gatoo",6,1.79175946922805,7.11882624906208
"671",25,11,"f","f",1,810,1,"A5","Label","A_Gatoo",6,1.79175946922805,6.69703424766648
"672",25,12,"h","h",1,593,1,"B4","Label","A_Gatoo",6,1.79175946922805,6.38519439899773
"673",25,13,"f","h",0,647,2,"A3","Label","A_Gatoo",6,1.79175946922805,6.4723462945009
"674",25,14,"h","f",0,944,2,"B3","Label","A_Gatoo",6,1.79175946922805,6.8501261661455
"675",25,15,"h","h",1,736,2,"B4","Label","A_Gatoo",6,1.79175946922805,6.60123011872888
"676",25,16,"f","h",0,702,2,"A6","Label","A_Gatoo",6,1.79175946922805,6.55393340402581
"677",25,17,"f","f",1,777,2,"A5","Label","A_Gatoo",6,1.79175946922805,6.65544035036765
"678",25,18,"f","h",0,654,2,"A4","Label","A_Gatoo",6,1.79175946922805,6.4831073514572
"679",25,19,"h","f",0,758,2,"B5","Label","A_Gatoo",6,1.79175946922805,6.63068338564237
"680",25,20,"h","h",1,745,2,"B2","Label","A_Gatoo",6,1.79175946922805,6.61338421837956
"681",25,21,"f","f",1,1156,2,"A2","Label","A_Gatoo",6,1.79175946922805,7.05272104923232
"682",25,22,"h","f",0,984,2,"B6","Label","A_Gatoo",6,1.79175946922805,6.89162589705225
"683",25,23,"h","h",1,1288,2,"B1","Label","A_Gatoo",6,1.79175946922805,7.1608459066643
"684",25,24,"f","h",0,938,2,"A1","Label","A_Gatoo",6,1.79175946922805,6.84374994900622
"685",25,25,"h","h",1,643,3,"B3","Label","A_Gatoo",6,1.79175946922805,6.46614472423762
"686",25,26,"f","f",1,867,3,"A1","Label","A_Gatoo",6,1.79175946922805,6.76503897678054
"687",25,27,"f","h",0,952,3,"A3","Label","A_Gatoo",6,1.79175946922805,6.85856503479136
"688",25,28,"h","h",1,1134,3,"B6","Label","A_Gatoo",6,1.79175946922805,7.0335064842877
"689",25,29,"h","f",0,672,3,"B5","Label","A_Gatoo",6,1.79175946922805,6.51025834052315
"690",25,30,"f","f",1,1268,3,"A5","Label","A_Gatoo",6,1.79175946922805,7.14519613499717
"691",25,31,"h","h",1,875,3,"B1","Label","A_Gatoo",6,1.79175946922805,6.77422388635761
"692",25,32,"f","f",1,751,3,"A2","Label","A_Gatoo",6,1.79175946922805,6.62140565176413
"693",25,33,"f","h",0,815,3,"A4","Label","A_Gatoo",6,1.79175946922805,6.70318811324086
"694",25,34,"f","f",1,1027,3,"A6","Label","A_Gatoo",6,1.79175946922805,6.93439720992856
"695",25,35,"h","f",0,1220,3,"B4","Label","A_Gatoo",6,1.79175946922805,7.1066061377273
"696",25,36,"h","h",1,1214,3,"B2","Label","A_Gatoo",6,1.79175946922805,7.10167597161944
"697",25,37,"f","h",0,458,4,"A1","Label","A_Gatoo",6,1.79175946922805,6.12686918411419
"698",25,38,"f","f",1,1604,4,"A2","Label","A_Gatoo",6,1.79175946922805,7.38025578842646
"699",25,39,"h","h",1,960,4,"B2","Label","A_Gatoo",6,1.79175946922805,6.86693328446188
"700",25,40,"f","f",1,466,4,"A6","Label","A_Gatoo",6,1.79175946922805,6.14418563412565
"701",25,41,"h","h",1,602,4,"B3","Label","A_Gatoo",6,1.79175946922805,6.40025744530882
"702",25,42,"h","h",1,564,4,"B1","Label","A_Gatoo",6,1.79175946922805,6.33505425149806
"703",25,43,"h","h",1,530,4,"B6","Label","A_Gatoo",6,1.79175946922805,6.27287700654617
"704",25,44,"f","f",1,382,4,"A4","Label","A_Gatoo",6,1.79175946922805,5.94542060860658
"705",25,45,"f","f",1,379,4,"A3","Label","A_Gatoo",6,1.79175946922805,5.93753620508243
"706",25,46,"f","f",1,607,4,"A5","Label","A_Gatoo",6,1.79175946922805,6.4085287910595
"707",25,47,"h","h",1,431,4,"B5","Label","A_Gatoo",6,1.79175946922805,6.06610809010375
"708",25,48,"h","h",1,371,4,"B4","Label","A_Gatoo",6,1.79175946922805,5.91620206260743
"709",25,49,"f","f",1,463,5,"A2","Label","A_Gatoo",6,1.79175946922805,6.13772705408623
"710",25,50,"h","f",0,480,5,"B5","Label","A_Gatoo",6,1.79175946922805,6.17378610390194
"711",25,51,"f","f",1,446,5,"A6","Label","A_Gatoo",6,1.79175946922805,6.10031895202006
"712",25,52,"f","f",1,591,5,"A4","Label","A_Gatoo",6,1.79175946922805,6.3818160174061
"713",25,53,"f","f",1,530,5,"A5","Label","A_Gatoo",6,1.79175946922805,6.27287700654617
"714",25,54,"h","h",1,508,5,"B4","Label","A_Gatoo",6,1.79175946922805,6.23048144757848
"715",25,55,"h","h",1,433,5,"B2","Label","A_Gatoo",6,1.79175946922805,6.07073772800249
"716",25,56,"h","h",1,440,5,"B1","Label","A_Gatoo",6,1.79175946922805,6.08677472691231
"717",25,57,"f","f",1,524,5,"A3","Label","A_Gatoo",6,1.79175946922805,6.26149168432104
"718",25,58,"h","h",1,470,5,"B3","Label","A_Gatoo",6,1.79175946922805,6.1527326947041
"719",25,59,"f","f",1,406,5,"A1","Label","A_Gatoo",6,1.79175946922805,6.00635315960173
"720",25,60,"h","h",1,580,5,"B6","Label","A_Gatoo",6,1.79175946922805,6.36302810354046
"721",25,61,"h","h",1,651,6,"B5","Label","A_Gatoo",6,1.79175946922805,6.47850964220857
"722",25,62,"h","h",1,447,6,"B3","Label","A_Gatoo",6,1.79175946922805,6.10255859461357
"723",25,63,"h","h",1,477,6,"B6","Label","A_Gatoo",6,1.79175946922805,6.16751649088834
"724",25,64,"f","f",1,528,6,"A5","Label","A_Gatoo",6,1.79175946922805,6.26909628370626
"725",25,65,"f","f",1,495,6,"A4","Label","A_Gatoo",6,1.79175946922805,6.20455776256869
"726",25,66,"h","h",1,408,6,"B1","Label","A_Gatoo",6,1.79175946922805,6.01126717440416
"727",25,67,"h","h",1,620,6,"B4","Label","A_Gatoo",6,1.79175946922805,6.42971947803914
"728",25,68,"f","f",1,505,6,"A6","Label","A_Gatoo",6,1.79175946922805,6.22455842927536
"729",25,69,"f","f",1,352,6,"A3","Label","A_Gatoo",6,1.79175946922805,5.8636311755981
"730",25,70,"f","f",1,391,6,"A1","Label","A_Gatoo",6,1.79175946922805,5.96870755998537
"731",25,71,"h","h",1,466,6,"B2","Label","A_Gatoo",6,1.79175946922805,6.14418563412565
"732",25,72,"f","f",1,594,6,"A2","Label","A_Gatoo",6,1.79175946922805,6.38687931936265
"733",25,253,"f","f",1,529,0,"A3","Label","A_Gatoo",6,1.79175946922805,6.2709884318583
"734",25,254,"h","h",1,431,0,"B5","Label","A_Gatoo",6,1.79175946922805,6.06610809010375
"735",25,255,"h","h",1,536,0,"TestB2","Label","A_Gatoo",6,1.79175946922805,6.2841341610708
"736",25,256,"h","h",1,514,0,"B3","Label","A_Gatoo",6,1.79175946922805,6.24222326545517
"737",25,257,"f","f",1,316,0,"A6","Label","A_Gatoo",6,1.79175946922805,5.75574221358691
"738",25,258,"f","f",1,390,0,"A4","Label","A_Gatoo",6,1.79175946922805,5.96614673912369
"739",25,259,"f","f",1,458,0,"TestA2","Label","A_Gatoo",6,1.79175946922805,6.12686918411419
"740",25,260,"f","f",1,481,0,"A5","Label","A_Gatoo",6,1.79175946922805,6.17586727010576
"741",25,261,"h","h",1,470,0,"B6","Label","A_Gatoo",6,1.79175946922805,6.1527326947041
"742",25,262,"h","h",1,438,0,"TestB1","Label","A_Gatoo",6,1.79175946922805,6.08221891037645
"743",25,263,"h","h",1,362,0,"B4","Label","A_Gatoo",6,1.79175946922805,5.89164421182577
"744",25,264,"f","f",1,424,0,"TestA1","Label","A_Gatoo",6,1.79175946922805,6.04973345523196
"745",29,1,"f","f",1,2279,1,"A1","Label","A_Gatoo",3,1.09861228866811,7.73149202924568
"746",29,2,"f","h",0,1932,1,"A3","Label","A_Gatoo",3,1.09861228866811,7.56631101477246
"747",29,3,"h","h",1,2112,1,"B2","Label","A_Gatoo",3,1.09861228866811,7.65539064482615
"748",29,4,"h","h",1,816,1,"B1","Label","A_Gatoo",3,1.09861228866811,6.70441435496411
"749",29,5,"h","h",1,1345,1,"B3","Label","A_Gatoo",3,1.09861228866811,7.20414929203594
"750",29,6,"f","f",1,855,1,"A6","Label","A_Gatoo",3,1.09861228866811,6.75110146893676
"751",29,7,"h","h",1,719,1,"B6","Label","A_Gatoo",3,1.09861228866811,6.57786135772105
"752",29,8,"f","f",1,633,1,"A2","Label","A_Gatoo",3,1.09861228866811,6.45047042214418
"753",29,9,"h","h",1,493,1,"B4","Label","A_Gatoo",3,1.09861228866811,6.20050917404269
"754",29,10,"h","f",0,580,1,"B5","Label","A_Gatoo",3,1.09861228866811,6.36302810354046
"755",29,11,"f","f",1,1013,1,"A4","Label","A_Gatoo",3,1.09861228866811,6.92067150424868
"756",29,12,"f","f",1,1078,1,"A5","Label","A_Gatoo",3,1.09861228866811,6.98286275146894
"757",29,13,"f","f",1,867,2,"A6","Label","A_Gatoo",3,1.09861228866811,6.76503897678054
"758",29,14,"f","f",1,906,2,"A2","Label","A_Gatoo",3,1.09861228866811,6.80903930604298
"759",29,15,"f","h",0,757,2,"A5","Label","A_Gatoo",3,1.09861228866811,6.62936325343745
"760",29,16,"h","h",1,775,2,"B3","Label","A_Gatoo",3,1.09861228866811,6.65286302935335
"761",29,17,"f","f",1,661,2,"A1","Label","A_Gatoo",3,1.09861228866811,6.49375383985169
"762",29,18,"h","h",1,741,2,"B5","Label","A_Gatoo",3,1.09861228866811,6.60800062529609
"763",29,19,"h","h",1,969,2,"B6","Label","A_Gatoo",3,1.09861228866811,6.87626461189077
"764",29,20,"h","h",1,737,2,"B4","Label","A_Gatoo",3,1.09861228866811,6.60258789218934
"765",29,21,"h","h",1,810,2,"B2","Label","A_Gatoo",3,1.09861228866811,6.69703424766648
"766",29,22,"f","f",1,715,2,"A4","Label","A_Gatoo",3,1.09861228866811,6.57228254269401
"767",29,23,"h","h",1,728,2,"B1","Label","A_Gatoo",3,1.09861228866811,6.59030104819669
"768",29,24,"f","f",1,686,2,"A3","Label","A_Gatoo",3,1.09861228866811,6.53087762772588
"769",29,25,"f","f",1,711,3,"A3","Label","A_Gatoo",3,1.09861228866811,6.56667242980324
"770",29,26,"f","f",1,664,3,"A2","Label","A_Gatoo",3,1.09861228866811,6.49828214947643
"771",29,27,"h","h",1,628,3,"B4","Label","A_Gatoo",3,1.09861228866811,6.4425401664682
"772",29,28,"h","h",1,642,3,"B3","Label","A_Gatoo",3,1.09861228866811,6.46458830368996
"773",29,29,"h","h",1,508,3,"B5","Label","A_Gatoo",3,1.09861228866811,6.23048144757848
"774",29,30,"f","f",1,733,3,"A5","Label","A_Gatoo",3,1.09861228866811,6.59714570188665
"775",29,31,"h","h",1,745,3,"B1","Label","A_Gatoo",3,1.09861228866811,6.61338421837956
"776",29,32,"f","f",1,687,3,"A1","Label","A_Gatoo",3,1.09861228866811,6.53233429222235
"777",29,33,"h","h",1,656,3,"B2","Label","A_Gatoo",3,1.09861228866811,6.48616078894409
"778",29,34,"h","h",1,704,3,"B6","Label","A_Gatoo",3,1.09861228866811,6.55677835615804
"779",29,35,"f","f",1,642,3,"A6","Label","A_Gatoo",3,1.09861228866811,6.46458830368996
"780",29,36,"f","f",1,602,3,"A4","Label","A_Gatoo",3,1.09861228866811,6.40025744530882
"781",29,253,"f","f",1,826,0,"A6","Label","A_Gatoo",3,1.09861228866811,6.71659477352098
"782",29,254,"h","h",1,652,0,"B3","Label","A_Gatoo",3,1.09861228866811,6.48004456192665
"783",29,255,"f","f",1,593,0,"A5","Label","A_Gatoo",3,1.09861228866811,6.38519439899773
"784",29,256,"f","f",1,609,0,"A3","Label","A_Gatoo",3,1.09861228866811,6.4118182677099
"785",29,257,"h","h",1,677,0,"TestB2","Label","A_Gatoo",3,1.09861228866811,6.51767127291227
"786",29,258,"h","h",1,524,0,"TestB1","Label","A_Gatoo",3,1.09861228866811,6.26149168432104
"787",29,259,"f","f",1,692,0,"TestA1","Label","A_Gatoo",3,1.09861228866811,6.53958595561767
"788",29,260,"h","h",1,638,0,"B6","Label","A_Gatoo",3,1.09861228866811,6.45833828334479
"789",29,261,"h","h",1,673,0,"B5","Label","A_Gatoo",3,1.09861228866811,6.51174532964473
"790",29,262,"f","f",1,520,0,"TestA2","Label","A_Gatoo",3,1.09861228866811,6.25382881157547
"791",29,263,"f","f",1,589,0,"A4","Label","A_Gatoo",3,1.09861228866811,6.37842618365159
"792",29,264,"h","h",1,575,0,"B4","Label","A_Gatoo",3,1.09861228866811,6.35437004079735
"793",27,1,"f","h",0,4688,1,"A2","NoLabel","NoName",5,1.6094379124341,8.45276133125685
"794",27,2,"f","f",1,2937,1,"A5","NoLabel","NoName",5,1.6094379124341,7.98514393119862
"795",27,3,"h","f",0,2962,1,"B6","NoLabel","NoName",5,1.6094379124341,7.99361999482774
"796",27,4,"h","h",1,4084,1,"B2","NoLabel","NoName",5,1.6094379124341,8.31483217928456
"797",27,5,"h","h",1,1875,1,"B1","NoLabel","NoName",5,1.6094379124341,7.53636393840451
"798",27,6,"h","h",1,1708,1,"B3","NoLabel","NoName",5,1.6094379124341,7.44307837434852
"799",27,7,"f","h",0,3051,1,"A3","NoLabel","NoName",5,1.6094379124341,8.02322468471667
"800",27,8,"h","f",0,2598,1,"B5","NoLabel","NoName",5,1.6094379124341,7.86249719723055
"801",27,9,"f","f",1,1641,1,"A6","NoLabel","NoName",5,1.6094379124341,7.40306109109009
"802",27,10,"f","f",1,2317,1,"A4","NoLabel","NoName",5,1.6094379124341,7.74802852443238
"803",27,11,"h","f",0,3036,1,"B4","NoLabel","NoName",5,1.6094379124341,8.01829613851552
"804",27,12,"f","h",0,1408,1,"A1","NoLabel","NoName",5,1.6094379124341,7.24992553671799
"805",27,13,"f","h",0,1659,2,"A2","NoLabel","NoName",5,1.6094379124341,7.41397029019044
"806",27,14,"h","f",0,1358,2,"B6","NoLabel","NoName",5,1.6094379124341,7.21376830811864
"807",27,15,"f","f",1,2059,2,"A1","NoLabel","NoName",5,1.6094379124341,7.62997570702779
"808",27,16,"h","f",0,1718,2,"B5","NoLabel","NoName",5,1.6094379124341,7.4489161025442
"809",27,17,"h","h",1,2447,2,"B3","NoLabel","NoName",5,1.6094379124341,7.80261806344267
"810",27,18,"f","h",0,3632,2,"A3","NoLabel","NoName",5,1.6094379124341,8.19753873972118
"811",27,19,"h","h",1,1574,2,"B2","NoLabel","NoName",5,1.6094379124341,7.36137542897735
"812",27,20,"f","f",1,3735,2,"A6","NoLabel","NoName",5,1.6094379124341,8.22550309756692
"813",27,21,"f","f",1,2366,2,"A5","NoLabel","NoName",5,1.6094379124341,7.76895604453833
"814",27,22,"h","h",1,2598,2,"B1","NoLabel","NoName",5,1.6094379124341,7.86249719723055
"815",27,23,"h","f",0,1816,2,"B4","NoLabel","NoName",5,1.6094379124341,7.50439155916124
"816",27,24,"f","f",1,2161,2,"A4","NoLabel","NoName",5,1.6094379124341,7.67832635650689
"817",27,25,"h","h",1,1566,3,"B4","NoLabel","NoName",5,1.6094379124341,7.35627987655075
"818",27,26,"h","h",1,3747,3,"B1","NoLabel","NoName",5,1.6094379124341,8.22871079879369
"819",27,27,"h","h",1,2209,3,"B3","NoLabel","NoName",5,1.6094379124341,7.70029520342012
"820",27,28,"f","f",1,1702,3,"A1","NoLabel","NoName",5,1.6094379124341,7.43955930913332
"821",27,29,"f","f",1,1642,3,"A4","NoLabel","NoName",5,1.6094379124341,7.40367029001237
"822",27,30,"h","h",1,1665,3,"B5","NoLabel","NoName",5,1.6094379124341,7.41758040241454
"823",27,31,"f","f",1,2308,3,"A2","NoLabel","NoName",5,1.6094379124341,7.74413662762799
"824",27,32,"f","h",0,4220,3,"A3","NoLabel","NoName",5,1.6094379124341,8.34759040703006
"825",27,33,"h","h",1,1500,3,"B2","NoLabel","NoName",5,1.6094379124341,7.3132203870903
"826",27,34,"h","h",1,2135,3,"B6","NoLabel","NoName",5,1.6094379124341,7.66622192566273
"827",27,35,"f","f",1,614,3,"A5","NoLabel","NoName",5,1.6094379124341,6.41999492814714
"828",27,36,"f","f",1,1761,3,"A6","NoLabel","NoName",5,1.6094379124341,7.47363710849621
"829",27,37,"h","h",1,1020,4,"B1","NoLabel","NoName",5,1.6094379124341,6.92755790627832
"830",27,38,"h","h",1,1814,4,"B5","NoLabel","NoName",5,1.6094379124341,7.50328963067508
"831",27,39,"h","h",1,853,4,"B2","NoLabel","NoName",5,1.6094379124341,6.74875954749168
"832",27,40,"h","h",1,757,4,"B6","NoLabel","NoName",5,1.6094379124341,6.62936325343745
"833",27,41,"f","f",1,1198,4,"A5","NoLabel","NoName",5,1.6094379124341,7.08840877867539
"834",27,42,"h","h",1,2260,4,"B4","NoLabel","NoName",5,1.6094379124341,7.72312009226633
"835",27,43,"f","f",1,2687,4,"A1","NoLabel","NoName",5,1.6094379124341,7.89618060861549
"836",27,44,"f","f",1,1286,4,"A2","NoLabel","NoName",5,1.6094379124341,7.15929190479756
"837",27,45,"h","h",1,803,4,"B3","NoLabel","NoName",5,1.6094379124341,6.68835471394676
"838",27,46,"f","f",1,1350,4,"A6","NoLabel","NoName",5,1.6094379124341,7.20785987143248
"839",27,47,"f","f",1,1207,4,"A4","NoLabel","NoName",5,1.6094379124341,7.09589322109753
"840",27,48,"f","h",0,2577,4,"A3","NoLabel","NoName",5,1.6094379124341,7.85438121065236
"841",27,49,"h","h",1,957,5,"B2","NoLabel","NoName",5,1.6094379124341,6.86380339145295
"842",27,50,"h","h",1,628,5,"B4","NoLabel","NoName",5,1.6094379124341,6.4425401664682
"843",27,51,"h","h",1,705,5,"B3","NoLabel","NoName",5,1.6094379124341,6.55819780281227
"844",27,52,"f","f",1,1983,5,"A5","NoLabel","NoName",5,1.6094379124341,7.5923661285198
"845",27,53,"h","h",1,724,5,"B1","NoLabel","NoName",5,1.6094379124341,6.58479139238572
"846",27,54,"h","h",1,740,5,"B5","NoLabel","NoName",5,1.6094379124341,6.60665018619822
"847",27,55,"f","f",1,431,5,"A1","NoLabel","NoName",5,1.6094379124341,6.06610809010375
"848",27,56,"h","h",1,566,5,"B6","NoLabel","NoName",5,1.6094379124341,6.33859407820318
"849",27,57,"f","f",1,972,5,"A2","NoLabel","NoName",5,1.6094379124341,6.87935580446044
"850",27,58,"f","f",1,1051,5,"A6","NoLabel","NoName",5,1.6094379124341,6.95749737087695
"851",27,59,"f","f",1,759,5,"A3","NoLabel","NoName",5,1.6094379124341,6.63200177739563
"852",27,60,"f","f",1,686,5,"A4","NoLabel","NoName",5,1.6094379124341,6.53087762772588
"853",27,253,"f","f",1,806,0,"A4","NoLabel","NoName",5,1.6094379124341,6.69208374250663
"854",27,254,"f","f",1,531,0,"A3","NoLabel","NoName",5,1.6094379124341,6.27476202124194
"855",27,255,"h","h",1,603,0,"TestB1","NoLabel","NoName",5,1.6094379124341,6.40191719672719
"856",27,256,"f","f",1,513,0,"A6","NoLabel","NoName",5,1.6094379124341,6.24027584517077
"857",27,257,"h","h",1,794,0,"B6","NoLabel","NoName",5,1.6094379124341,6.67708346124714
"858",27,258,"h","h",1,665,0,"TestB2","NoLabel","NoName",5,1.6094379124341,6.49978704065585
"859",27,259,"h","h",1,701,0,"B4","NoLabel","NoName",5,1.6094379124341,6.55250788703459
"860",27,260,"h","h",1,535,0,"B3","NoLabel","NoName",5,1.6094379124341,6.28226674689601
"861",27,261,"f","f",1,760,0,"A5","NoLabel","NoName",5,1.6094379124341,6.63331843328038
"862",27,262,"h","h",1,487,0,"B5","NoLabel","NoName",5,1.6094379124341,6.18826412308259
"863",27,263,"f","h",0,1185,0,"TestA1","NoLabel","NoName",5,1.6094379124341,7.07749805356923
"864",27,264,"f","f",1,683,0,"TestA2","NoLabel","NoName",5,1.6094379124341,6.52649485957079
"865",30,1,"f","f",1,2408,1,"A6","NoLabel","NoName",3,1.09861228866811,7.78655180642871
"866",30,2,"f","h",0,1317,1,"A4","NoLabel","NoName",3,1.09861228866811,7.18311170174328
"867",30,3,"h","f",0,1202,1,"B5","NoLabel","NoName",3,1.09861228866811,7.09174211509515
"868",30,4,"h","h",1,1330,1,"B4","NoLabel","NoName",3,1.09861228866811,7.1929342212158
"869",30,5,"h","f",0,1656,1,"B1","NoLabel","NoName",3,1.09861228866811,7.4121603349452
"870",30,6,"h","f",0,2273,1,"B2","NoLabel","NoName",3,1.09861228866811,7.72885582385254
"871",30,7,"h","h",1,1157,1,"B3","NoLabel","NoName",3,1.09861228866811,7.05358572719368
"872",30,8,"f","f",1,1784,1,"A5","NoLabel","NoName",3,1.09861228866811,7.48661331313996
"873",30,9,"f","h",0,844,1,"A1","NoLabel","NoName",3,1.09861228866811,6.73815249459596
"874",30,10,"f","f",1,2083,1,"A3","NoLabel","NoName",3,1.09861228866811,7.64156444126097
"875",30,11,"h","h",1,1100,1,"B6","NoLabel","NoName",3,1.09861228866811,7.00306545878646
"876",30,12,"f","f",1,1038,1,"A2","NoLabel","NoName",3,1.09861228866811,6.94505106372583
"877",30,13,"h","f",0,1619,2,"B2","NoLabel","NoName",3,1.09861228866811,7.38956395367764
"878",30,14,"f","h",0,786,2,"A6","NoLabel","NoName",3,1.09861228866811,6.66695679242921
"879",30,15,"f","f",1,2146,2,"A5","NoLabel","NoName",3,1.09861228866811,7.67136092319064
"880",30,16,"h","h",1,889,2,"B3","NoLabel","NoName",3,1.09861228866811,6.7900972355139
"881",30,17,"f","h",0,1231,2,"A4","NoLabel","NoName",3,1.09861228866811,7.11558212618445
"882",30,18,"h","f",0,1980,2,"B6","NoLabel","NoName",3,1.09861228866811,7.59085212368858
"883",30,19,"f","f",1,1230,2,"A1","NoLabel","NoName",3,1.09861228866811,7.11476944836646
"884",30,20,"h","h",1,1133,2,"B4","NoLabel","NoName",3,1.09861228866811,7.03262426102801
"885",30,21,"h","h",1,691,2,"B1","NoLabel","NoName",3,1.09861228866811,6.53813982376767
"886",30,22,"f","f",1,671,2,"A3","NoLabel","NoName",3,1.09861228866811,6.50876913697168
"887",30,23,"f","h",0,741,2,"A2","NoLabel","NoName",3,1.09861228866811,6.60800062529609
"888",30,24,"h","h",1,1096,2,"B5","NoLabel","NoName",3,1.09861228866811,6.99942246750796
"889",30,25,"h","h",1,802,3,"B2","NoLabel","NoName",3,1.09861228866811,6.68710860786651
"890",30,26,"h","h",1,820,3,"B3","NoLabel","NoName",3,1.09861228866811,6.7093043402583
"891",30,27,"f","f",1,705,3,"A1","NoLabel","NoName",3,1.09861228866811,6.55819780281227
"892",30,28,"h","h",1,649,3,"B5","NoLabel","NoName",3,1.09861228866811,6.47543271670409
"893",30,29,"f","f",1,1218,3,"A6","NoLabel","NoName",3,1.09861228866811,7.10496544826984
"894",30,30,"f","f",1,599,3,"A2","NoLabel","NoName",3,1.09861228866811,6.39526159811545
"895",30,31,"f","f",1,735,3,"A4","NoLabel","NoName",3,1.09861228866811,6.59987049921284
"896",30,32,"h","h",1,499,3,"B1","NoLabel","NoName",3,1.09861228866811,6.21260609575152
"897",30,33,"h","h",1,559,3,"B6","NoLabel","NoName",3,1.09861228866811,6.3261494731551
"898",30,34,"h","h",1,706,3,"B4","NoLabel","NoName",3,1.09861228866811,6.55961523749324
"899",30,35,"f","f",1,533,3,"A3","NoLabel","NoName",3,1.09861228866811,6.27852142416584
"900",30,36,"f","f",1,868,3,"A5","NoLabel","NoName",3,1.09861228866811,6.76619171466035
"901",30,253,"f","f",1,798,0,"A4","NoLabel","NoName",3,1.09861228866811,6.68210859744981
"902",30,254,"h","h",1,649,0,"B5","NoLabel","NoName",3,1.09861228866811,6.47543271670409
"903",30,255,"h","h",1,1053,0,"B3","NoLabel","NoName",3,1.09861228866811,6.95939851213398
"904",30,256,"h","h",1,604,0,"B6","NoLabel","NoName",3,1.09861228866811,6.40357419793482
"905",30,257,"h","h",1,458,0,"B4","NoLabel","NoName",3,1.09861228866811,6.12686918411419
"906",30,258,"f","f",1,517,0,"TestA1","NoLabel","NoName",3,1.09861228866811,6.24804287450843
"907",30,259,"h","h",1,878,0,"TestB2","NoLabel","NoName",3,1.09861228866811,6.77764659363512
"908",30,260,"f","f",1,668,0,"A6","NoLabel","NoName",3,1.09861228866811,6.50428817353665
"909",30,261,"f","f",1,670,0,"A5","NoLabel","NoName",3,1.09861228866811,6.50727771238501
"910",30,262,"f","f",1,655,0,"TestA2","NoLabel","NoName",3,1.09861228866811,6.48463523563525
"911",30,263,"f","f",1,542,0,"A3","NoLabel","NoName",3,1.09861228866811,6.29526600143965
"912",30,264,"h","h",1,522,0,"TestB1","NoLabel","NoName",3,1.09861228866811,6.25766758788264
"913",3,1,"f","f",1,1430,1,"A2","NoLabel","NoName",4,1.38629436111989,7.26542972325395
"914",3,2,"h","f",0,1300,1,"B1","NoLabel","NoName",4,1.38629436111989,7.17011954344963
"915",3,3,"h","f",0,2412,1,"B5","NoLabel","NoName",4,1.38629436111989,7.78821155784708
"916",3,4,"f","f",1,1581,1,"A1","NoLabel","NoName",4,1.38629436111989,7.36581283720947
"917",3,5,"h","h",1,2552,1,"B2","NoLabel","NoName",4,1.38629436111989,7.84463264446468
"918",3,6,"h","h",1,1786,1,"B6","NoLabel","NoName",4,1.38629436111989,7.48773376143644
"919",3,7,"f","h",0,1794,1,"A5","NoLabel","NoName",4,1.38629436111989,7.49220304261874
"920",3,8,"f","f",1,4130,1,"A6","NoLabel","NoName",4,1.38629436111989,8.32603268595508
"921",3,9,"f","f",1,1849,1,"A3","NoLabel","NoName",4,1.38629436111989,7.52240023138712
"922",3,10,"h","h",1,1090,1,"B4","NoLabel","NoName",4,1.38629436111989,6.99393297522319
"923",3,11,"h","h",1,1531,1,"B3","NoLabel","NoName",4,1.38629436111989,7.33367639565768
"924",3,12,"f","f",1,4090,1,"A4","NoLabel","NoName",4,1.38629436111989,8.31630024903685
"925",3,13,"h","h",1,4588,2,"B1","NoLabel","NoName",4,1.38629436111989,8.43119947824926
"926",3,14,"f","f",1,966,2,"A6","NoLabel","NoName",4,1.38629436111989,6.87316383421252
"927",3,15,"f","f",1,2693,2,"A2","NoLabel","NoName",4,1.38629436111989,7.8984110928116
"928",3,16,"f","h",0,1173,2,"A4","NoLabel","NoName",4,1.38629436111989,7.06731984865348
"929",3,17,"h","h",1,2321,2,"B4","NoLabel","NoName",4,1.38629436111989,7.74975340627444
"930",3,18,"f","h",0,1146,2,"A3","NoLabel","NoName",4,1.38629436111989,7.04403289727469
"931",3,19,"h","h",1,1251,2,"B3","NoLabel","NoName",4,1.38629436111989,7.13169851046691
"932",3,20,"h","h",1,1239,2,"B2","NoLabel","NoName",4,1.38629436111989,7.12205988162914
"933",3,21,"f","f",1,1458,2,"A1","NoLabel","NoName",4,1.38629436111989,7.2848209125686
"934",3,22,"f","f",1,2694,2,"A5","NoLabel","NoName",4,1.38629436111989,7.89878235697031
"935",3,23,"h","h",1,1021,2,"B5","NoLabel","NoName",4,1.38629436111989,6.92853781816467
"936",3,24,"h","h",1,1056,2,"B6","NoLabel","NoName",4,1.38629436111989,6.96224346426621
"937",3,25,"h","h",1,855,3,"B3","NoLabel","NoName",4,1.38629436111989,6.75110146893676
"938",3,26,"f","f",1,1425,3,"A1","NoLabel","NoName",4,1.38629436111989,7.26192709270275
"939",3,27,"h","h",1,943,3,"B4","NoLabel","NoName",4,1.38629436111989,6.84906628263346
"940",3,28,"h","h",1,1105,3,"B5","NoLabel","NoName",4,1.38629436111989,7.00760061395185
"941",3,29,"h","h",1,914,3,"B1","NoLabel","NoName",4,1.38629436111989,6.81783057145415
"942",3,30,"f","h",0,2323,3,"A4","NoLabel","NoName",4,1.38629436111989,7.75061473277041
"943",3,31,"f","f",1,1215,3,"A3","NoLabel","NoName",4,1.38629436111989,7.10249935577465
"944",3,32,"h","h",1,2098,3,"B2","NoLabel","NoName",4,1.38629436111989,7.64873978895624
"945",3,33,"f","f",1,1317,3,"A5","NoLabel","NoName",4,1.38629436111989,7.18311170174328
"946",3,34,"h","h",1,875,3,"B6","NoLabel","NoName",4,1.38629436111989,6.77422388635761
"947",3,35,"f","f",1,1159,3,"A6","NoLabel","NoName",4,1.38629436111989,7.05531284333975
"948",3,36,"f","f",1,1022,3,"A2","NoLabel","NoName",4,1.38629436111989,6.92951677076365
"949",3,37,"h","h",1,974,4,"B6","NoLabel","NoName",4,1.38629436111989,6.88141130364254
"950",3,38,"f","f",1,1202,4,"A5","NoLabel","NoName",4,1.38629436111989,7.09174211509515
"951",3,39,"f","f",1,1531,4,"A4","NoLabel","NoName",4,1.38629436111989,7.33367639565768
"952",3,40,"f","f",1,877,4,"A1","NoLabel","NoName",4,1.38629436111989,6.77650699237218
"953",3,41,"f","f",1,1051,4,"A2","NoLabel","NoName",4,1.38629436111989,6.95749737087695
"954",3,42,"h","h",1,2849,4,"B1","NoLabel","NoName",4,1.38629436111989,7.95472333449791
"955",3,43,"h","h",1,1782,4,"B3","NoLabel","NoName",4,1.38629436111989,7.48549160803075
"956",3,44,"h","h",1,1070,4,"B4","NoLabel","NoName",4,1.38629436111989,6.97541392745595
"957",3,45,"f","f",1,928,4,"A6","NoLabel","NoName",4,1.38629436111989,6.8330317327862
"958",3,46,"h","h",1,1052,4,"B2","NoLabel","NoName",4,1.38629436111989,6.95844839329766
"959",3,47,"h","h",1,1082,4,"B5","NoLabel","NoName",4,1.38629436111989,6.98656645940643
"960",3,48,"f","f",1,1039,4,"A3","NoLabel","NoName",4,1.38629436111989,6.94601399109923
"961",3,253,"f","f",1,2030,0,"TestA1","NoLabel","NoName",4,1.38629436111989,7.61579107203583
"962",3,254,"h","h",1,830,0,"B5","NoLabel","NoName",4,1.38629436111989,6.72142570079064
"963",3,255,"h","h",1,936,0,"B6","NoLabel","NoName",4,1.38629436111989,6.84161547647759
"964",3,256,"f","f",1,850,0,"A4","NoLabel","NoName",4,1.38629436111989,6.74523634948436
"965",3,257,"h","h",1,862,0,"B3","NoLabel","NoName",4,1.38629436111989,6.75925527066369
"966",3,258,"h","h",1,2411,0,"TestB2","NoLabel","NoName",4,1.38629436111989,7.78779687818117
"967",3,259,"h","h",1,981,0,"B4","NoLabel","NoName",4,1.38629436111989,6.88857245956536
"968",3,260,"f","f",1,1497,0,"A5","NoLabel","NoName",4,1.38629436111989,7.31121838441963
"969",3,261,"f","f",1,1575,0,"A3","NoLabel","NoName",4,1.38629436111989,7.36201055125973
"970",3,262,"f","f",1,1024,0,"TestA2","NoLabel","NoName",4,1.38629436111989,6.93147180559945
"971",3,263,"f","f",1,798,0,"A6","NoLabel","NoName",4,1.38629436111989,6.68210859744981
"972",3,264,"h","h",1,745,0,"TestB1","NoLabel","NoName",4,1.38629436111989,6.61338421837956
"973",31,1,"h","h",1,3350,1,"B5","NoLabel","NoName",2,0.693147180559945,8.11671562481911
"974",31,2,"h","h",1,2900,1,"B4","NoLabel","NoName",2,0.693147180559945,7.97246601597457
"975",31,3,"f","f",1,6405,1,"A5","NoLabel","NoName",2,0.693147180559945,8.76483421433083
"976",31,4,"f","f",1,3867,1,"A6","NoLabel","NoName",2,0.693147180559945,8.2602342916073
"977",31,5,"f","h",0,3043,1,"A1","NoLabel","NoName",2,0.693147180559945,8.02059914989697
"978",31,6,"f","h",0,3835,1,"A4","NoLabel","NoName",2,0.693147180559945,8.25192471380136
"979",31,7,"h","h",1,2225,1,"B3","NoLabel","NoName",2,0.693147180559945,7.70751219460034
"980",31,8,"f","h",0,2162,1,"A2","NoLabel","NoName",2,0.693147180559945,7.67878899819915
"981",31,9,"h","f",0,1270,1,"B1","NoLabel","NoName",2,0.693147180559945,7.14677217945264
"982",31,10,"h","h",1,4393,1,"B6","NoLabel","NoName",2,0.693147180559945,8.38776764397578
"983",31,11,"f","h",0,2293,1,"A3","NoLabel","NoName",2,0.693147180559945,7.7376162828579
"984",31,12,"h","f",0,1349,1,"B2","NoLabel","NoName",2,0.693147180559945,7.20711885620776
"985",31,13,"f","f",1,1704,2,"A2","NoLabel","NoName",2,0.693147180559945,7.44073370738926
"986",31,14,"h","h",1,1235,2,"B1","NoLabel","NoName",2,0.693147180559945,7.11882624906208
"987",31,15,"f","f",1,1393,2,"A3","NoLabel","NoName",2,0.693147180559945,7.23921497377981
"988",31,16,"h","h",1,1774,2,"B3","NoLabel","NoName",2,0.693147180559945,7.48099216286952
"989",31,17,"h","h",1,743,2,"B5","NoLabel","NoName",2,0.693147180559945,6.61069604471776
"990",31,18,"h","h",1,622,2,"B6","NoLabel","NoName",2,0.693147180559945,6.43294009273918
"991",31,19,"f","f",1,1688,2,"A4","NoLabel","NoName",2,0.693147180559945,7.4312996751559
"992",31,20,"h","h",1,775,2,"B4","NoLabel","NoName",2,0.693147180559945,6.65286302935335
"993",31,21,"h","h",1,828,2,"B2","NoLabel","NoName",2,0.693147180559945,6.71901315438526
"994",31,22,"f","f",1,990,2,"A1","NoLabel","NoName",2,0.693147180559945,6.89770494312864
"995",31,23,"f","f",1,1249,2,"A6","NoLabel","NoName",2,0.693147180559945,7.13009851012558
"996",31,24,"f","f",1,1197,2,"A5","NoLabel","NoName",2,0.693147180559945,7.08757370555797
"997",31,253,"f","h",0,1681,0,"TestA1","NoLabel","NoName",2,0.693147180559945,7.42714413340862
"998",31,254,"h","h",1,676,0,"B6","NoLabel","NoName",2,0.693147180559945,6.51619307604296
"999",31,255,"f","f",1,683,0,"A4","NoLabel","NoName",2,0.693147180559945,6.52649485957079
"1000",31,256,"h","h",1,961,0,"B4","NoLabel","NoName",2,0.693147180559945,6.86797440897029
"1001",31,257,"h","h",1,673,0,"B5","NoLabel","NoName",2,0.693147180559945,6.51174532964473
"1002",31,258,"f","f",1,775,0,"A3","NoLabel","NoName",2,0.693147180559945,6.65286302935335
"1003",31,259,"h","h",1,1375,0,"TestB2","NoLabel","NoName",2,0.693147180559945,7.22620901010067
"1004",31,260,"f","f",1,797,0,"A6","NoLabel","NoName",2,0.693147180559945,6.68085467879022
"1005",31,261,"h","h",1,633,0,"B3","NoLabel","NoName",2,0.693147180559945,6.45047042214418
"1006",31,262,"f","f",1,976,0,"TestA2","NoLabel","NoName",2,0.693147180559945,6.88346258641309
"1007",31,263,"f","f",1,1074,0,"A5","NoLabel","NoName",2,0.693147180559945,6.97914527506881
"1008",31,264,"h","h",1,739,0,"TestB1","NoLabel","NoName",2,0.693147180559945,6.6052979209482
"1009",2,1,"h","f",0,2044,1,"B3","NoLabel","NoName",21,3.04452243772342,7.6226639513236
"1010",2,2,"f","f",1,1352,1,"A4","NoLabel","NoName",21,3.04452243772342,7.20934025660291
"1011",2,3,"h","f",0,1564,1,"B2","NoLabel","NoName",21,3.04452243772342,7.35500192110526
"1012",2,4,"f","f",1,1028,1,"A5","NoLabel","NoName",21,3.04452243772342,6.93537044601511
"1013",2,5,"h","h",1,840,1,"B5","NoLabel","NoName",21,3.04452243772342,6.73340189183736
"1014",2,6,"f","f",1,2250,1,"A1","NoLabel","NoName",21,3.04452243772342,7.71868549519847
"1015",2,7,"h","h",1,2295,1,"B6","NoLabel","NoName",21,3.04452243772342,7.73848812249465
"1016",2,8,"h","f",0,893,1,"B1","NoLabel","NoName",21,3.04452243772342,6.7945865808765
"1017",2,9,"h","f",0,1354,1,"B4","NoLabel","NoName",21,3.04452243772342,7.21081845347222
"1018",2,10,"f","h",0,1807,1,"A3","NoLabel","NoName",21,3.04452243772342,7.49942329059223
"1019",2,11,"f","f",1,933,1,"A2","NoLabel","NoName",21,3.04452243772342,6.83840520084734
"1020",2,12,"f","f",1,986,1,"A6","NoLabel","NoName",21,3.04452243772342,6.89365635460264
"1021",2,13,"f","f",1,2092,2,"A3","NoLabel","NoName",21,3.04452243772342,7.64587582518481
"1022",2,14,"f","h",0,1191,2,"A1","NoLabel","NoName",21,3.04452243772342,7.0825485693553
"1023",2,15,"f","f",1,875,2,"A4","NoLabel","NoName",21,3.04452243772342,6.77422388635761
"1024",2,16,"h","h",1,1786,2,"B5","NoLabel","NoName",21,3.04452243772342,7.48773376143644
"1025",2,17,"h","f",0,907,2,"B2","NoLabel","NoName",21,3.04452243772342,6.81014245011514
"1026",2,18,"h","h",1,1812,2,"B4","NoLabel","NoName",21,3.04452243772342,7.50218648660292
"1027",2,19,"h","f",0,3931,2,"B6","NoLabel","NoName",21,3.04452243772342,8.27664912542186
"1028",2,20,"h","h",1,979,2,"B1","NoLabel","NoName",21,3.04452243772342,6.88653164253051
"1029",2,21,"f","f",1,1878,2,"A5","NoLabel","NoName",21,3.04452243772342,7.53796265976821
"1030",2,22,"f","h",0,1496,2,"A2","NoLabel","NoName",21,3.04452243772342,7.31055015853442
"1031",2,23,"h","f",0,775,2,"B3","NoLabel","NoName",21,3.04452243772342,6.65286302935335
"1032",2,24,"f","h",0,564,2,"A6","NoLabel","NoName",21,3.04452243772342,6.33505425149806
"1033",2,25,"h","f",0,580,3,"B4","NoLabel","NoName",21,3.04452243772342,6.36302810354046
"1034",2,26,"h","f",0,389,3,"B1","NoLabel","NoName",21,3.04452243772342,5.96357934361845
"1035",2,27,"h","h",1,1121,3,"B5","NoLabel","NoName",21,3.04452243772342,7.02197642307216
"1036",2,28,"f","f",1,378,3,"A6","NoLabel","NoName",21,3.04452243772342,5.93489419561959
"1037",2,29,"h","f",0,688,3,"B3","NoLabel","NoName",21,3.04452243772342,6.53378883793334
"1038",2,30,"f","h",0,802,3,"A2","NoLabel","NoName",21,3.04452243772342,6.68710860786651
"1039",2,31,"h","f",0,629,3,"B6","NoLabel","NoName",21,3.04452243772342,6.44413125670044
"1040",2,32,"h","h",1,1309,3,"B2","NoLabel","NoName",21,3.04452243772342,7.1770187659099
"1041",2,33,"f","h",0,1188,3,"A3","NoLabel","NoName",21,3.04452243772342,7.08002649992259
"1042",2,34,"f","f",1,604,3,"A1","NoLabel","NoName",21,3.04452243772342,6.40357419793482
"1043",2,35,"f","f",1,708,3,"A4","NoLabel","NoName",21,3.04452243772342,6.56244409369372
"1044",2,36,"f","f",1,2110,3,"A5","NoLabel","NoName",21,3.04452243772342,7.65444322647011
"1045",2,37,"f","f",1,327,4,"A2","NoLabel","NoName",21,3.04452243772342,5.78996017089725
"1046",2,38,"h","f",0,572,4,"B2","NoLabel","NoName",21,3.04452243772342,6.3491389913798
"1047",2,39,"f","h",0,1061,4,"A4","NoLabel","NoName",21,3.04452243772342,6.96696713861398
"1048",2,40,"f","f",1,1241,4,"A3","NoLabel","NoName",21,3.04452243772342,7.12367278520461
"1049",2,41,"h","f",0,1506,4,"B4","NoLabel","NoName",21,3.04452243772342,7.31721240835984
"1050",2,42,"f","h",0,593,4,"A6","NoLabel","NoName",21,3.04452243772342,6.38519439899773
"1051",2,43,"h","f",0,731,4,"B1","NoLabel","NoName",21,3.04452243772342,6.59441345974978
"1052",2,44,"f","h",0,519,4,"A5","NoLabel","NoName",21,3.04452243772342,6.25190388316589
"1053",2,45,"f","f",1,679,4,"A1","NoLabel","NoName",21,3.04452243772342,6.5206211275587
"1054",2,46,"h","f",0,1062,4,"B6","NoLabel","NoName",21,3.04452243772342,6.96790920180188
"1055",2,47,"h","f",0,1379,4,"B3","NoLabel","NoName",21,3.04452243772342,7.2291138777933
"1056",2,48,"h","h",1,583,4,"B5","NoLabel","NoName",21,3.04452243772342,6.36818718635049
"1057",2,49,"f","f",1,644,5,"A4","NoLabel","NoName",21,3.04452243772342,6.46769872610435
"1058",2,50,"f","f",1,649,5,"A2","NoLabel","NoName",21,3.04452243772342,6.47543271670409
"1059",2,51,"f","f",1,682,5,"A1","NoLabel","NoName",21,3.04452243772342,6.52502965784346
"1060",2,52,"h","f",0,5296,5,"B4","NoLabel","NoName",21,3.04452243772342,8.57470709761684
"1061",2,53,"h","h",1,3645,5,"B6","NoLabel","NoName",21,3.04452243772342,8.20111164444276
"1062",2,54,"h","f",0,4367,5,"B1","NoLabel","NoName",21,3.04452243772342,8.38183155348556
"1063",2,55,"h","h",1,1214,5,"B2","NoLabel","NoName",21,3.04452243772342,7.10167597161944
"1064",2,56,"h","f",0,222,5,"B5","NoLabel","NoName",21,3.04452243772342,5.40267738187228
"1065",2,57,"h","h",1,793,5,"B3","NoLabel","NoName",21,3.04452243772342,6.67582322163485
"1066",2,58,"f","f",1,795,5,"A6","NoLabel","NoName",21,3.04452243772342,6.67834211465433
"1067",2,59,"f","f",1,530,5,"A5","NoLabel","NoName",21,3.04452243772342,6.27287700654617
"1068",2,60,"f","f",1,524,5,"A3","NoLabel","NoName",21,3.04452243772342,6.26149168432104
"1069",2,61,"h","f",0,231,6,"B5","NoLabel","NoName",21,3.04452243772342,5.44241771052179
"1070",2,62,"h","h",1,633,6,"B6","NoLabel","NoName",21,3.04452243772342,6.45047042214418
"1071",2,63,"f","f",1,1143,6,"A1","NoLabel","NoName",21,3.04452243772342,7.04141166379481
"1072",2,64,"f","f",1,1919,6,"A5","NoLabel","NoName",21,3.04452243772342,7.5595594960077
"1073",2,65,"f","h",0,1088,6,"A6","NoLabel","NoName",21,3.04452243772342,6.99209642741589
"1074",2,66,"h","f",0,654,6,"B3","NoLabel","NoName",21,3.04452243772342,6.4831073514572
"1075",2,67,"h","f",0,1070,6,"B4","NoLabel","NoName",21,3.04452243772342,6.97541392745595
"1076",2,68,"h","h",1,735,6,"B1","NoLabel","NoName",21,3.04452243772342,6.59987049921284
"1077",2,69,"f","f",1,2281,6,"A3","NoLabel","NoName",21,3.04452243772342,7.73236922228439
"1078",2,70,"f","f",1,380,6,"A4","NoLabel","NoName",21,3.04452243772342,5.94017125272043
"1079",2,71,"f","f",1,1690,6,"A2","NoLabel","NoName",21,3.04452243772342,7.43248380791712
"1080",2,72,"h","f",0,NA,6,"B2","NoLabel","NoName",21,3.04452243772342,NA
"1081",2,73,"f","h",0,591,7,"A3","NoLabel","NoName",21,3.04452243772342,6.3818160174061
"1082",2,74,"h","f",0,993,7,"B1","NoLabel","NoName",21,3.04452243772342,6.90073066404517
"1083",2,75,"h","f",0,1646,7,"B6","NoLabel","NoName",21,3.04452243772342,7.40610338123702
"1084",2,76,"f","h",0,611,7,"A2","NoLabel","NoName",21,3.04452243772342,6.4150969591716
"1085",2,77,"h","f",0,1599,7,"B5","NoLabel","NoName",21,3.04452243772342,7.37713371283395
"1086",2,78,"f","h",0,246,7,"A1","NoLabel","NoName",21,3.04452243772342,5.50533153593236
"1087",2,79,"h","f",0,2129,7,"B3","NoLabel","NoName",21,3.04452243772342,7.66340766489348
"1088",2,80,"f","f",1,680,7,"A4","NoLabel","NoName",21,3.04452243772342,6.52209279817015
"1089",2,81,"f","f",1,NA,7,"A5","NoLabel","NoName",21,3.04452243772342,NA
"1090",2,82,"h","f",0,613,7,"B2","NoLabel","NoName",21,3.04452243772342,6.41836493593621
"1091",2,83,"f","h",0,426,7,"A6","NoLabel","NoName",21,3.04452243772342,6.05443934626937
"1092",2,84,"h","f",0,364,7,"B4","NoLabel","NoName",21,3.04452243772342,5.89715386763674
"1093",2,85,"f","h",0,662,8,"A5","NoLabel","NoName",21,3.04452243772342,6.49526555593701
"1094",2,86,"h","f",0,640,8,"B4","NoLabel","NoName",21,3.04452243772342,6.46146817635372
"1095",2,87,"f","h",0,1199,8,"A2","NoLabel","NoName",21,3.04452243772342,7.08924315502751
"1096",2,88,"h","f",0,391,8,"B5","NoLabel","NoName",21,3.04452243772342,5.96870755998537
"1097",2,89,"h","h",1,494,8,"B1","NoLabel","NoName",21,3.04452243772342,6.20253551718792
"1098",2,90,"h","f",0,250,8,"B3","NoLabel","NoName",21,3.04452243772342,5.52146091786225
"1099",2,91,"f","h",0,1551,8,"A3","NoLabel","NoName",21,3.04452243772342,7.34665516317654
"1100",2,92,"f","f",1,913,8,"A4","NoLabel","NoName",21,3.04452243772342,6.81673588059497
"1101",2,93,"f","f",1,373,8,"A1","NoLabel","NoName",21,3.04452243772342,5.92157841964382
"1102",2,94,"h","f",0,893,8,"B6","NoLabel","NoName",21,3.04452243772342,6.7945865808765
"1103",2,95,"h","f",0,2368,8,"B2","NoLabel","NoName",21,3.04452243772342,7.7698009960039
"1104",2,96,"f","h",0,4744,8,"A6","NoLabel","NoName",21,3.04452243772342,8.46463594067756
"1105",2,97,"f","f",1,1268,9,"A3","NoLabel","NoName",21,3.04452243772342,7.14519613499717
"1106",2,98,"f","f",1,2773,9,"A4","NoLabel","NoName",21,3.04452243772342,7.92768504561578
"1107",2,99,"h","f",0,1130,9,"B2","NoLabel","NoName",21,3.04452243772342,7.02997291170639
"1108",2,100,"f","h",0,268,9,"A1","NoLabel","NoName",21,3.04452243772342,5.59098698051086
"1109",2,101,"f","f",1,1175,9,"A5","NoLabel","NoName",21,3.04452243772342,7.06902342657826
"1110",2,102,"h","h",1,246,9,"B6","NoLabel","NoName",21,3.04452243772342,5.50533153593236
"1111",2,103,"h","h",1,516,9,"B4","NoLabel","NoName",21,3.04452243772342,6.24610676548156
"1112",2,104,"f","h",0,218,9,"A2","NoLabel","NoName",21,3.04452243772342,5.38449506278909
"1113",2,105,"h","f",0,4070,9,"B3","NoLabel","NoName",21,3.04452243772342,8.31139827843664
"1114",2,106,"h","h",1,894,9,"B1","NoLabel","NoName",21,3.04452243772342,6.79570577517351
"1115",2,107,"f","h",0,5636,9,"A6","NoLabel","NoName",21,3.04452243772342,8.63692987301857
"1116",2,108,"h","f",0,549,9,"B5","NoLabel","NoName",21,3.04452243772342,6.30809844150953
"1117",2,109,"h","h",1,930,10,"B2","NoLabel","NoName",21,3.04452243772342,6.8351845861473
"1118",2,110,"f","f",1,2013,10,"A3","NoLabel","NoName",21,3.04452243772342,7.60738142563979
"1119",2,111,"f","f",1,3139,10,"A1","NoLabel","NoName",21,3.04452243772342,8.05165955684195
"1120",2,112,"h","f",0,3573,10,"B1","NoLabel","NoName",21,3.04452243772342,8.18116085802341
"1121",2,113,"f","f",1,942,10,"A6","NoLabel","NoName",21,3.04452243772342,6.84800527457636
"1122",2,114,"f","f",1,818,10,"A2","NoLabel","NoName",21,3.04452243772342,6.70686233660275
"1123",2,115,"h","f",0,1228,10,"B5","NoLabel","NoName",21,3.04452243772342,7.11314210870709
"1124",2,116,"h","f",0,1138,10,"B3","NoLabel","NoName",21,3.04452243772342,7.03702761468628
"1125",2,117,"f","f",1,1319,10,"A4","NoLabel","NoName",21,3.04452243772342,7.18462915271731
"1126",2,118,"h","h",1,838,10,"B4","NoLabel","NoName",21,3.04452243772342,6.73101810048208
"1127",2,119,"h","h",1,1177,10,"B6","NoLabel","NoName",21,3.04452243772342,7.07072410726028
"1128",2,120,"f","h",0,720,10,"A5","NoLabel","NoName",21,3.04452243772342,6.5792512120101
"1129",2,121,"f","f",1,2185,11,"A4","NoLabel","NoName",21,3.04452243772342,7.68937110752969
"1130",2,122,"h","f",0,1149,11,"B6","NoLabel","NoName",21,3.04452243772342,7.04664727784876
"1131",2,123,"f","f",1,540,11,"A5","NoLabel","NoName",21,3.04452243772342,6.29156913955832
"1132",2,124,"h","f",0,1613,11,"B1","NoLabel","NoName",21,3.04452243772342,7.38585107812521
"1133",2,125,"f","f",1,1550,11,"A1","NoLabel","NoName",21,3.04452243772342,7.34601020991329
